Radial velocity =     6.596  dispersion =   1.780  FWHM =   4.202, 159 lines matched out of 3,542
Relative flux dispersion in residual spectrum = 2.154%
5000.340  5000.230    100.1  21.34   3.657
5000.434  5000.324     64.2  21.81   2.327
5000.788  5000.678     16.4   1.83   0.583
5001.033  5000.923     88.1   3.55   1.537
5001.913  5001.803    137.3   4.39   2.303
5002.393  5002.283     10.9   1.15   0.451
5002.624  5002.514     32.9   2.44   0.701
5002.842  5002.732    108.7   3.97   2.244
5003.793  5003.683     81.8   3.88   2.000
5004.102  5003.992     74.4   5.02   1.814
5004.396  5004.286     65.6   5.28   1.801
5004.937  5004.827     46.9   4.05   1.621
5005.220  5005.110     54.0   2.84   0.884
5005.766  5005.656    139.4  11.38   2.541
5006.161  5006.051    209.6  13.49   3.412
5006.744  5006.634     24.0   4.49   0.912
5007.282  5007.172    195.2   9.18   2.816
5007.772  5007.661     47.9   3.44   1.124
5008.689  5008.579     23.1   3.91   1.365
5009.695  5009.584    102.3   7.63   3.090
5010.075  5009.965     56.0   4.19   1.535
5010.311  5010.201     63.4   4.92   2.135
5010.983  5010.873     64.2   6.23   2.317
5011.790  5011.680     12.9   2.67   0.592
5012.133  5012.022    217.5   8.59   3.660
5012.489  5012.379     84.6   4.03   1.435
5012.741  5012.631     63.4   2.27   0.957
5013.350  5013.239    112.1   3.98   2.309
5013.747  5013.637     89.2   9.38   1.850
5014.283  5014.173    212.7   8.15   2.992
5014.672  5014.561     24.4   6.25   1.795
5014.987  5014.877    132.3   7.30   2.041
5015.356  5015.245     36.4   3.05   0.656
5016.205  5016.095    122.2   5.79   3.186
5016.524  5016.414     54.2   3.90   1.526
5016.935  5016.825     69.6   3.97   1.755
5017.636  5017.526    116.9   6.45   2.087
5018.091  5017.981     57.6  11.51   3.396
5018.434  5018.324    262.6  13.43   5.264
5019.235  5019.125     38.8   2.84   0.669
5019.770  5019.660     55.2   2.52   0.805
5020.068  5019.957    135.9   5.33   2.584
5020.695  5020.584     35.8   8.05   1.852
5020.847  5020.737     56.7   8.42   0.870
5021.671  5021.560    110.1   4.26   1.310
5021.975  5021.864     77.2   6.49   2.022
5022.281  5022.170    129.7   7.68   2.000
5022.914  5022.803    131.2   3.97   2.715
5023.238  5023.128     66.1   3.94   1.301
5023.551  5023.440     64.4   4.96   1.270
5024.247  5024.136     25.6   2.68   0.736
5024.895  5024.785    126.0  12.07   2.951
5025.348  5025.237     40.0   5.37   0.733
5025.604  5025.493    108.1   3.03   1.788
5025.836  5025.725     13.8   2.28   0.738
5027.250  5027.140    254.0  17.22   6.626
5027.787  5027.677    114.4  15.12   3.432
5028.177  5028.066    124.4   4.37   1.441
5028.379  5028.269     23.1   1.94   0.928
5028.993  5028.882      7.6   0.79   0.215
5029.675  5029.564     91.5  11.76   2.456
5030.823  5030.712     62.2   3.71   1.011
5031.082  5030.971    117.9   8.68   2.851
5031.965  5031.855     52.4   2.06   0.547
5032.764  5032.654     46.4   1.78   0.343
5033.589  5033.479     15.8   1.38   0.631
5034.931  5034.820      6.2   0.85   0.170
5035.416  5035.306    115.4   3.16   1.907
5035.973  5035.862    163.9   5.84   2.106
5036.488  5036.378    145.8  19.34   5.802
5036.969  5036.859     62.2   2.05   1.108
5037.336  5037.225      6.0   1.47   0.546
5037.809  5037.698     25.4   2.38   0.689
5038.523  5038.412    212.9  18.90  11.384
5039.281  5039.171     97.9  16.60   2.364
5039.363  5039.252    129.6  15.88   2.327
5040.007  5039.897    140.9   5.62   3.280
5040.301  5040.190     22.2   1.80   0.408
5040.693  5040.583     99.5   7.83   3.195
5041.034  5040.923    325.5   7.43   3.977
5041.436  5041.325    113.8  13.01   4.292
5041.760  5041.649    295.7   7.69   3.158
5042.233  5042.122     84.1   3.39   1.661
5042.603  5042.492     20.8   0.65   0.263
5043.372  5043.261     14.7   1.50   0.369
5043.632  5043.521     82.3   2.45   1.708
5044.264  5044.153    114.3   5.43   2.286
5045.457  5045.346     73.2   3.93   1.255
5047.171  5047.060     10.4   0.87   0.121
5047.349  5047.238      9.0   0.87   0.180
5048.170  5048.058    124.9  22.26   7.667
5048.478  5048.367    100.5   8.59   2.253
5048.862  5048.751    126.6   4.57   1.741
5049.859  5049.748    212.8  11.80   4.013
5050.112  5050.001     23.5   5.00   2.408
5050.579  5050.468     14.0   3.35   1.261
5050.994  5050.883     11.0   1.65   0.379
5051.659  5051.548    225.9   6.16   2.947
5051.940  5051.829     87.1   3.42   1.667
5052.173  5052.062     12.2   1.44   0.276
5052.891  5052.780     52.0  30.54   1.820
5052.998  5052.887     77.0  30.60   1.697
5053.377  5053.266     31.2   5.47   1.718
5053.617  5053.506     38.9   6.80   2.349
5054.110  5053.999     21.0   1.55   0.494
5054.691  5054.579     69.3   3.50   1.966
5055.631  5055.519     15.8   1.88   0.756
5056.044  5055.933     43.5   3.06   0.475
5056.196  5056.085     18.8   2.90   0.968
5056.888  5056.777     66.0   3.66   1.070
5057.530  5057.419     40.1   2.95   1.320
5058.023  5057.912     59.9   2.74   0.978
5058.547  5058.436     33.4   3.61   1.274  5058.496   26.0   29372   49135   -2.750  1.000 01  NIST
5058.967  5058.855      8.1   0.89   0.190
5059.264  5059.153      5.7   0.87   0.262
5059.851  5059.740     16.2   2.31   0.573
5060.124  5060.012    135.9   5.71   3.618
5060.425  5060.313      6.3   2.42   0.346
5061.770  5061.659     10.8   1.69   0.637
5062.153  5062.042     53.5   2.51   1.293
5063.209  5063.097     17.9   2.35   0.955
5063.780  5063.669      6.6   1.49   0.430
5064.113  5064.002     24.8   2.23   0.673
5064.697  5064.586    157.9   6.34   3.129
5064.932  5064.821     32.8   6.51   1.792
5065.133  5065.021    266.5  11.53   7.654
5066.006  5065.895    102.2   1.97   0.850
5066.803  5066.692     21.5   3.06   1.266
5067.208  5067.096     95.5   2.43   1.352
5067.786  5067.674     82.5   3.39   0.924
5068.352  5068.240     63.6   3.41   1.518
5068.818  5068.707    152.4   6.03   2.566
5069.120  5069.008     22.1   2.24   0.537
5069.443  5069.332     59.9   2.04   0.578
5070.088  5069.976     21.8   3.18   0.764
5070.223  5070.112     23.3   3.19   0.967
5071.171  5071.059      6.4   1.66   0.476
5071.533  5071.421     86.8   2.64   1.441
5071.864  5071.753     12.0   1.16   0.423
5072.148  5072.037    114.1  13.29   3.534
5072.730  5072.618     94.4   2.87   1.319
5072.979  5072.867     94.2   3.33   2.161
5073.504  5073.393     17.4   1.45   0.457
5073.806  5073.694     17.3   1.06   0.306
5074.806  5074.694    131.2   4.86   2.261
5075.348  5075.236     66.0   5.70   1.858
5075.860  5075.749      5.4   0.71   0.140
5076.332  5076.221    118.6   7.93   1.576
5076.637  5076.525     51.2   4.89   1.317
5076.922  5076.810     13.9   3.32   1.050
5077.411  5077.299     14.7   1.55   0.356
5078.196  5078.084      7.3   2.64   0.769
5078.582  5078.471     19.3   3.41   0.613
5079.030  5078.919    118.1   5.18   1.526
5079.277  5079.165    152.3   4.76   2.637
5079.799  5079.687    170.9   7.09   3.317
5080.017  5079.906    107.9   5.97   1.667
5080.555  5080.443    158.5  20.06   6.293
5081.149  5081.037    121.5  11.72   3.504
5081.629  5081.517     54.1   1.30   0.691
5081.896  5081.784     25.9   0.74   0.281
5082.402  5082.290     92.5   4.79   1.206
5083.071  5082.959     29.2   5.66   1.951
5083.390  5083.278    177.5   8.39   3.679
5083.778  5083.666     41.2   2.50   0.851
5084.152  5084.040    102.1   4.67   2.190
5084.623  5084.511     27.1   2.57   0.870
5084.847  5084.735     12.7   2.14   0.900
5085.387  5085.275     53.3   6.70   0.733
5085.558  5085.447     69.0   6.93   1.339
5085.957  5085.845      6.9   2.83   0.429
5086.313  5086.201     18.6   2.11   0.567
5086.826  5086.714     27.8   4.66   1.447
5087.090  5086.978    103.5   4.91   2.135
5087.477  5087.365     76.6   4.54   2.166
5088.199  5088.087     63.0   3.15   1.157
5088.598  5088.486     59.3   3.20   0.788
5089.017  5088.905     52.3   2.10   0.772
5089.280  5089.168     29.6   3.06   0.962
5089.895  5089.783     16.3   4.05   1.293
5090.466  5090.354     16.1   1.59   0.349
5090.836  5090.724    111.8   3.15   1.740
5091.352  5091.240     14.5   2.06   0.436
5091.916  5091.804     65.0   7.94   2.552
5092.344  5092.232     27.5   2.65   0.544
5092.854  5092.742     35.4   3.52   1.179
5093.529  5093.417      7.8   1.80   0.535
5094.092  5093.980      9.3   2.46   0.454
5094.462  5094.350     50.2   3.25   1.372
5094.997  5094.885     48.3   3.84   0.622
5095.360  5095.248     30.9   5.59   1.853
5095.883  5095.771     13.1   1.15   0.396
5096.221  5096.109     13.5   1.51   0.639
5097.002  5096.890    171.1  13.16   5.328
5097.531  5097.419     72.2   5.35   1.761
5098.173  5098.061     32.3   2.08   0.363
5098.714  5098.601    233.6   9.43   2.480
5099.130  5099.017    110.0   9.07   2.116
5099.385  5099.273    117.4   9.70   2.298
5099.977  5099.865    106.4   4.26   1.741
5100.707  5100.595     34.5   2.19   0.657
5100.980  5100.868     31.1   6.78   1.676
5101.490  5101.378     22.7   0.64   0.217
5102.439  5102.326     27.0   4.21   1.423
5102.678  5102.566      8.3   1.77   0.497
5103.030  5102.918    106.5   4.75   1.987
5103.814  5103.702     12.5   3.56   0.616
5104.130  5104.018     99.3  15.15   6.419
5104.506  5104.394     67.2   4.34   1.020
5105.377  5105.264     12.2   3.10   1.019
5105.593  5105.481    151.3   5.01   2.514
5106.589  5106.476     34.6   8.23   3.176
5106.922  5106.810      5.2   2.86   0.774
5107.478  5107.366    125.4   7.08   2.349
5107.617  5107.504    292.1   5.07   2.466
5107.930  5107.818     15.5   3.81   1.633
5108.442  5108.329     39.1   2.68   0.849
5108.693  5108.581     13.9   1.58   0.545
5108.972  5108.859     30.2   5.02   1.259
5109.700  5109.588     95.2  10.29   2.187
5110.463  5110.350    216.5   8.35   3.590
5110.798  5110.686     60.4   3.10   1.159
5111.392  5111.279     26.4   2.21   1.125
5111.701  5111.589     21.6   2.62   0.779
5112.325  5112.213     21.0   3.21   0.979
5112.555  5112.443     33.0   3.06   0.939
5113.205  5113.093     76.5   5.08   1.734
5113.495  5113.383     80.8   4.78   1.788
5114.308  5114.195     13.1   0.78   0.278
5114.602  5114.489     49.8   2.73   0.670
5115.449  5115.336     87.3   3.28   2.135
5115.837  5115.725     50.7   0.97   0.465
5116.168  5116.056      5.7   1.57   0.401
5116.539  5116.427     22.0   2.80   0.818
5116.795  5116.682     27.7   4.16   1.632
5117.994  5117.881     54.5   4.34   1.561
5118.345  5118.233      6.0   2.52   0.645
5118.859  5118.747     12.4   2.31   0.383
5119.182  5119.070     37.0   2.82   1.014
5120.457  5120.344     92.2   2.30   0.738
5120.950  5120.837     18.5   1.43   0.407
5121.486  5121.374     16.5   3.60   1.027
5121.670  5121.558    124.4   4.49   1.103
5122.173  5122.060     62.7   2.64   1.731
5122.866  5122.753     32.2   9.74   1.928
5123.285  5123.172     88.2   6.45   0.852
5123.519  5123.406     83.5   3.05   1.064
5123.791  5123.679    184.3   7.16   3.175
5124.072  5123.959     53.6   5.89   2.359
5124.676  5124.563     45.0   2.09   0.689
5125.219  5125.106    180.8   5.84   1.785
5125.620  5125.507     25.3   5.44   2.018
5125.865  5125.752     33.1   5.66   1.772
5126.239  5126.126    106.6   4.69   1.202
5126.988  5126.875     16.2   1.99   0.742
5127.420  5127.307    160.9   6.59   3.715
5127.742  5127.629    101.1   5.81   2.399
5128.142  5128.029     42.9   3.58   0.877
5128.561  5128.448     27.5   1.16   0.362
5129.216  5129.103    105.4   3.25   1.210
5129.426  5129.313     94.7   3.02   1.165
5129.675  5129.562     90.2   3.18   0.939
5129.931  5129.818     16.8   2.81   1.307
5130.399  5130.287     56.8   3.48   1.003
5130.622  5130.509     40.0   3.43   0.736
5131.529  5131.417    136.7   8.78   2.549
5131.813  5131.700     71.4   4.68   1.291
5132.397  5132.284     17.5   2.70   1.031
5132.722  5132.609     29.1   1.48   0.701
5132.974  5132.861      6.9   2.11   0.712
5133.540  5133.427     36.4   3.19   1.202
5133.753  5133.640    153.9   5.16   2.066
5134.307  5134.194     11.1   2.49   0.580
5134.638  5134.525     39.3   2.54   1.101
5135.197  5135.084     18.5   4.30   0.708
5136.142  5136.029     45.6   3.96   1.058
5136.318  5136.205     19.3   3.75   0.734
5136.861  5136.748     22.2   1.51   0.360
5137.129  5137.016    143.5   4.97   2.762
5137.447  5137.334    117.4   7.01   2.333
5138.447  5138.334     28.6   2.51   0.929
5138.774  5138.661     38.7   1.53   0.521
5139.403  5139.290    320.1   6.24   3.582
5139.641  5139.527    140.4   8.43   2.989
5140.257  5140.144      5.8   3.39   0.849
5140.880  5140.767     29.0   6.39   2.020
5141.287  5141.174     17.1   2.86   0.461
5141.799  5141.686    127.1   4.96   2.603  5141.739   26.0   19552   38996   -2.124  1.000 99  KFEm
5142.362  5142.249     33.7   2.28   0.934
5142.591  5142.478    147.9   6.91   2.363
5142.927  5142.813    259.7   8.29   3.725
5143.777  5143.664     70.4   2.96   1.304
5144.712  5144.598     56.6   2.56   0.745
5145.163  5145.050    104.0   3.93   2.138
5145.521  5145.408     88.6   5.08   2.654
5145.801  5145.688      5.1   4.80   1.153
5146.242  5146.129     70.8  12.47   5.241
5146.531  5146.418    109.9   8.55   2.884
5146.819  5146.706     38.1   0.94   0.286
5147.134  5147.021     15.3   1.76   0.515
5147.544  5147.431    111.6   6.37   3.440
5147.796  5147.682     24.2   2.43   0.737
5148.106  5147.992     98.0   5.05   1.810
5148.291  5148.178    110.9   5.18   1.810
5148.818  5148.705     43.2   9.72   4.492
5149.191  5149.078     29.3   2.30   0.556
5149.558  5149.444     13.2   3.12   0.666
5149.867  5149.753     38.7   3.35   1.180
5150.233  5150.120     61.1   2.81   0.986
5150.690  5150.576     15.0   3.79   1.053
5150.916  5150.803    183.4   5.07   3.192
5151.960  5151.846    166.9   6.45   3.185
5152.242  5152.129    107.8   6.80   3.626
5153.293  5153.179     93.7   6.96   1.559
5153.473  5153.360     82.7   6.80   1.255
5154.132  5154.018    109.5   5.83   1.601
5154.449  5154.336     47.1   4.42   1.495
5154.816  5154.702     10.6   2.30   0.723
5155.182  5155.069     68.0   4.88   1.643
5155.587  5155.473      9.3   2.47   0.549
5155.819  5155.706     88.8   2.64   1.533
5156.103  5155.990     14.5   2.85   0.670
5156.431  5156.318     16.2   3.44   0.775
5156.701  5156.588     58.9   4.23   1.781
5157.080  5156.966     18.2   3.50   0.863
5157.729  5157.615     24.1   3.59   0.707
5158.042  5157.929     33.4   5.86   1.784
5158.626  5158.512     17.7   2.83   0.762
5159.119  5159.006     88.4   5.39   1.944
5159.579  5159.466     18.6   3.36   1.328
5159.824  5159.711     21.6   3.07   0.698
5160.260  5160.146     25.2   2.54   0.934
5161.233  5161.119     21.5   3.50   0.984
5161.817  5161.703     42.7   2.11   0.413
5162.348  5162.234    153.0   8.09   2.072
5162.792  5162.679     35.5  10.34   2.006
5163.153  5163.040     31.4   6.11   1.665
5163.667  5163.553     25.7   2.90   0.489
5164.219  5164.106     21.7   5.21   1.430
5164.648  5164.535     94.8  17.39   4.848
5165.160  5165.046     85.7  19.87   5.049
5165.480  5165.366    126.4  12.53   2.558
5166.060  5165.947     30.8   6.46   2.600
5166.337  5166.223    209.3  10.48   3.766
5167.021  5166.907    103.7  18.18   5.734
5167.496  5167.383    357.9   0.00   6.340
5168.230  5168.116     66.8  11.91   2.719
5168.713  5168.600    127.8   7.08   1.906
5169.029  5168.916    303.9   6.86   3.522
5169.333  5169.220     61.6   8.44   2.532
5170.623  5170.510     32.1   1.96   0.938
5170.826  5170.712     48.5   2.09   0.628
5171.075  5170.962     40.4   3.65   1.070
5171.676  5171.563    237.6  15.35   3.957
5172.212  5172.098    131.5  22.94   6.371
5172.752  5172.638    374.9   0.00   5.642
5173.308  5173.194    126.9  25.93   7.074
5173.800  5173.686    171.9  13.03   3.267
5174.017  5173.904     37.6   5.23   1.999
5174.446  5174.332     27.5   3.81   1.187
5174.989  5174.875     15.5   2.57   0.641
5175.434  5175.320     16.5   2.93   0.682
5175.785  5175.672     33.3   3.23   0.951
5176.139  5176.025     81.3   4.86   2.165
5176.625  5176.511     74.3   6.59   1.776
5177.360  5177.246     95.2  12.65   5.622
5178.548  5178.434     13.5   3.75   1.006
5178.863  5178.749     51.6   2.20   0.578
5179.146  5179.032     40.5   2.73   0.912
5179.836  5179.722     25.5   1.00   0.433
5180.116  5180.002     79.5   1.51   0.703  5180.056   26.0   36079   55379   -1.120  1.000 12  NIST
5180.614  5180.500     21.9   5.11   1.387
5181.238  5181.124     30.9   6.39   1.172
5181.397  5181.283     41.4   6.52   1.738
5181.994  5181.880     44.0  12.11   2.847
5182.654  5182.540     66.6  13.72   3.737
5182.862  5182.748     86.5  17.02   4.671
5183.423  5183.309    369.2   0.00   7.841
5183.850  5183.735    386.3   0.00   5.324
5184.325  5184.210    177.9  14.50   4.199
5184.606  5184.492    122.9   9.42   2.913
5184.824  5184.710     42.3   5.92   2.734
5185.049  5184.935     33.8   6.33   2.082
5185.964  5185.850     96.8   3.82   1.388
5186.394  5186.280     40.1   1.66   0.791
5186.608  5186.494     34.4   2.51   0.653
5187.529  5187.414     22.7   2.76   0.669
5187.966  5187.852     91.8   2.88   0.950
5188.831  5188.717    238.4   7.85   3.673
5191.543  5191.429    211.5  11.64   3.543
5192.079  5191.965     73.0   7.64   2.075
5192.447  5192.333    255.2  16.21   5.387
5193.026  5192.912    157.9   5.94   3.236
5193.550  5193.435     29.1   2.28   0.671
5194.089  5193.975     52.4   5.39   1.542
5195.005  5194.891    184.4   8.12   3.239
5195.528  5195.414    124.7   5.26   2.318
5196.120  5196.006     93.8   5.01   2.083  5196.077   26.0   34329   53569   -0.590  1.000 12  KFE
5196.577  5196.462    130.7   8.45   3.734
5197.231  5197.116     52.4   5.03   1.363
5197.637  5197.523     84.8   2.59   1.225  5197.577   26.1   26055   45290   -2.230  1.000 99  KFE
5198.001  5197.887     54.4   4.65   1.712  5197.929   26.0   34692   53925   -1.480  1.000 12  NIST
5198.785  5198.671    148.2   5.25   2.581
5199.693  5199.578     11.8   2.43   0.728
5200.222  5200.108     58.3   3.94   1.219
5200.478  5200.364     73.0   3.42   1.497
5201.145  5201.031     49.6   2.17   0.869
5202.152  5202.038     19.9   4.36   1.529
5202.388  5202.273    199.9   6.70   2.421
5204.364  5204.250     30.9   5.70   2.234
5204.610  5204.495    265.3   6.84   3.611
5204.825  5204.710     25.3   6.21   1.856
5205.325  5205.210      9.3   2.06   0.736
5205.813  5205.698    107.1   6.90   2.446
5206.135  5206.021    301.0   8.61   4.169
5206.614  5206.499     43.0   3.22   0.722
5206.857  5206.742     13.7   1.98   0.562
5207.680  5207.565     12.2   3.08   0.509
5207.996  5207.882    107.5  18.72   4.733
5208.528  5208.413    350.5   4.75   4.674
5208.841  5208.726     49.7   7.46   2.745
5208.995  5208.880     32.5   7.21   1.683
5209.824  5209.709     20.8   5.61   0.390
5209.948  5209.833     44.4   5.78   0.769
5210.441  5210.327    174.4   8.69   3.076
5210.911  5210.796     36.2   6.34   2.330
5211.274  5211.160     34.7   3.74   1.153
5211.596  5211.482     49.5   3.30   1.134
5212.348  5212.234     74.9   5.67   2.455
5212.754  5212.639     55.7   2.13   0.264
5213.060  5212.946      5.5   2.93   1.019
5213.391  5213.276     22.7   2.01   0.443
5213.868  5213.753     19.2   3.07   0.696
5214.198  5214.083     35.0   4.95   1.442
5214.694  5214.580     54.7   2.84   0.919
5215.262  5215.147    156.8   7.99   2.475
5215.607  5215.492     37.5   7.16   2.087
5216.364  5216.249    214.8  17.43   5.579
5217.456  5217.342    132.2   3.86   2.269  5217.389   26.0   25900   45061   -1.020  1.000 10  KFE
5217.981  5217.867     79.0   2.57   0.961
5218.264  5218.149     81.4   2.42   1.018
5219.096  5218.981      9.5   3.20   0.754
5219.766  5219.651    106.8   6.43   2.973
5220.328  5220.213     60.7  11.62   2.682
5221.059  5220.944     56.1   7.51   3.268
5221.816  5221.702     54.1   3.78   1.433
5222.473  5222.359     71.8   2.67   0.946
5222.734  5222.619     61.8   2.52   1.133
5223.249  5223.134     59.2   5.14   1.738  5223.187   26.0   29320   48460   -2.243  1.000 01  NIST
5223.674  5223.559     57.8   2.39   0.819
5224.359  5224.244     98.1  11.09   2.786
5224.608  5224.493     76.1   2.26   0.921
5225.039  5224.924    134.4   3.56   1.344
5225.599  5225.484    152.8   6.58   4.185  5225.525   26.0     888   20020   -4.669  1.000 01  NIST
5225.874  5225.759     53.2   2.67   0.546
5226.150  5226.035     38.2   4.26   1.412
5226.610  5226.495    140.4   9.92   2.352
5226.936  5226.821    203.8   7.64   2.684
5227.255  5227.140    277.7  10.30   3.885
5227.783  5227.668     32.7   6.44   1.222
5228.160  5228.045     48.6   2.52   0.454
5228.450  5228.335     92.2   4.63   1.683
5229.921  5229.805    140.2   4.49   2.677
5230.282  5230.167     87.4   4.05   1.505
5230.738  5230.623     19.6   1.79   0.408
5231.038  5230.923      7.3   3.05   0.815
5231.489  5231.374     37.5   4.08   1.222
5232.761  5232.646     48.7  10.49   3.214
5233.011  5232.896    255.3   7.11   2.965
5233.247  5233.131     45.9   6.35   2.404
5233.867  5233.751     27.2   3.46   0.588
5234.221  5234.105     49.8   6.37   2.762
5234.698  5234.583     94.0   1.82   1.099  5234.625   26.1   25982   45080   -2.180  1.000 99  KFE
5235.248  5235.133     93.8   4.72   1.299
5235.488  5235.373    139.1   3.76   1.673
5236.278  5236.163     62.5   6.84   1.521
5237.153  5237.037      6.2   0.94   0.356
5237.379  5237.263     67.6   0.85   0.379
5237.927  5237.812      6.2   2.19   0.603
5238.641  5238.526     84.5   4.71   1.946
5239.028  5238.913     48.3   3.42   1.307
5239.905  5239.789    102.4   4.40   1.609
5240.490  5240.374     42.1   3.83   1.928
5240.941  5240.826     26.4   2.64   0.570
5241.526  5241.411     15.5   3.35   0.921
5242.059  5241.944     25.7   4.34   2.113
5242.562  5242.446    116.0   4.08   2.280  5242.491   26.0   29313   48383   -0.807  1.000 99  KFE
5243.426  5243.311     56.8   6.50   1.125
5243.842  5243.726     89.2   3.45   1.914  5243.773   26.0   34329   53394   -0.930  1.000 12  NIST
5244.580  5244.465      7.3   1.92   0.433
5245.755  5245.640     35.5   3.17   1.563
5246.110  5245.995     22.3   3.22   1.595
5246.639  5246.524     64.9   7.24   1.674
5247.127  5247.012    150.8  14.18   4.027  5247.049   26.0     704   19757   -4.800  1.000 99  KFE
5247.639  5247.524    139.8   7.10   3.192
5247.988  5247.873     88.5   2.53   1.133
5248.445  5248.330     22.5   2.65   0.678
5249.137  5249.021     78.0   5.09   2.456
5249.655  5249.539     60.4   7.65   1.643
5250.281  5250.165    157.0   9.95   3.830
5250.723  5250.608    160.9   5.85   2.471
5250.966  5250.850     53.9   3.36   1.294
5251.557  5251.442     29.9   1.15   0.344
5252.112  5251.996    166.8   7.58   3.687
5253.091  5252.975     67.0   3.40   1.746  5253.023   26.0   18378   37410   -3.849  1.000 01  NIST
5253.534  5253.419    109.8   5.20   2.070  5253.461   26.0   26479   45509   -1.523  1.000 10  NIST
5254.007  5253.891     18.6   0.70   0.172
5254.731  5254.615     20.3   3.87   1.233
5255.063  5254.947    234.0  10.12   4.596
5255.381  5255.265    114.9  17.26   3.063
5255.796  5255.681    120.8  16.65   3.803
5257.012  5256.897     36.6   1.63   0.585
5257.704  5257.589     67.1   0.90   0.487
5258.882  5258.766     19.3   1.09   0.445
5259.520  5259.404     28.6   0.90   0.376
5259.797  5259.682     17.8   0.68   0.270
5260.042  5259.927     28.1   0.89   0.409
5260.452  5260.337     69.0   3.38   1.614
5260.785  5260.669     29.5   3.10   1.417
5261.768  5261.652    137.3   6.31   1.959
5262.276  5262.161    172.5   5.05   1.614
5262.688  5262.572     31.0   1.81   0.296
5262.950  5262.835     58.3   1.74   0.707
5263.407  5263.291    181.6  13.42   4.517
5263.915  5263.799    108.3   8.55   2.066
5264.262  5264.146    213.7  10.76   3.041
5264.874  5264.758     59.5   1.01   0.446  5264.812   26.1   26055   45044   -3.130  1.000 99  KFE
5265.258  5265.142     89.6   9.69   2.230
5265.698  5265.582    305.1  10.37   4.050
5266.033  5265.917    120.4  10.51   2.162
5266.604  5266.488    270.1  17.30   5.199
5267.335  5267.219     59.8   4.58   1.007
5267.716  5267.600     10.3   0.70   0.239
5268.429  5268.313     79.5   7.06   2.440
5268.650  5268.534     85.0   9.34   2.786
5269.007  5268.891     51.4  13.32   2.063
5269.187  5269.071     66.3  13.74   3.814
5269.631  5269.515    380.6   0.00   8.119
5270.375  5270.260    322.1  13.46   6.162
5270.674  5270.558     46.2   9.54   3.309
5271.125  5271.009     62.0   3.85   0.851
5271.346  5271.230     46.6   1.79   0.657
5271.684  5271.568     14.5   0.62   0.139
5272.073  5271.957     59.2   1.37   0.789
5272.339  5272.223     42.8   3.13   1.074
5273.109  5272.993     23.2   5.78   1.953
5273.350  5273.234    305.6   9.27   7.536
5273.594  5273.478     26.4   5.51   2.121
5274.306  5274.190     35.9   1.36   0.490
5274.596  5274.479     29.9   1.20   0.357
5275.076  5274.960     91.0   6.89   2.387
5275.302  5275.186    155.1   6.93   2.616
5275.830  5275.714    113.9   5.71   1.952
5276.131  5276.015    185.5   7.74   2.428
5276.939  5276.823     12.9   1.53   0.500
5277.397  5277.281     24.4   1.04   0.393
5278.095  5277.979     19.8   1.77   0.715
5278.286  5278.170     17.3   1.76   0.724
5278.650  5278.534      5.3   0.58   0.191
5278.862  5278.746     25.2   0.90   0.342
5279.258  5279.142      7.2   0.78   0.210
5279.735  5279.619     20.6   1.80   0.456
5279.967  5279.851     31.3   6.32   1.748
5280.404  5280.288    115.5   4.59   0.903
5280.698  5280.582     55.0   1.46   0.421
5281.377  5281.261     30.6   4.46   1.142
5281.848  5281.732    191.9   9.86   2.680
5282.462  5282.346     75.4   1.88   1.265
5283.442  5283.325     35.0   9.31   3.663
5283.653  5283.536    252.9  12.03   5.312
5284.178  5284.062     80.3   5.06   1.009
5284.490  5284.374     91.7  13.43   2.770
5285.205  5285.089     54.0   1.68   0.748
5285.715  5285.598     14.6   0.91   0.205
5287.245  5287.129     33.3   2.01   0.475
5287.645  5287.528     12.6   0.51   0.127
5287.846  5287.730     13.2   0.44   0.122
5288.594  5288.477     94.7   4.55   2.014  5288.528   26.0   29799   48703   -1.550  1.000 99  KFE
5288.868  5288.751     20.7   1.06   0.313
5289.349  5289.232     25.2   2.10   0.704
5289.893  5289.776     17.1   2.08   0.631
5290.895  5290.779     28.5   1.19   0.306
5292.245  5292.128      5.6   0.86   0.198
5292.655  5292.539     57.2   1.09   0.597
5293.193  5293.077     65.9   6.60   3.075
5293.435  5293.319     19.5   2.43   0.616
5294.038  5293.921     61.8   2.86   1.149
5294.620  5294.504     42.8   1.25   0.772  5294.547   26.0   29357   48239   -2.680  1.000 99  KFE
5295.384  5295.267     53.5   1.88   1.012  5295.299   26.0   35612   54491   -1.530  1.000 12  NIST
5295.849  5295.733     70.9   4.16   2.108
5296.148  5296.031     12.0   1.70   0.277
5296.773  5296.656    154.2   6.33   3.298
5297.380  5297.264    155.3  21.85   5.029
5297.499  5297.383     58.3  22.78   3.006
5298.106  5297.989    122.6   4.59   1.904
5298.435  5298.318    303.5  10.02   6.227
5298.857  5298.740     88.2   4.65   1.178
5300.068  5299.952     51.0   0.80   0.251
5300.470  5300.354     11.6   0.57   0.164
5300.823  5300.706    120.2   3.59   2.348
5301.117  5301.000     91.1   2.48   1.194
5301.378  5301.261      8.2   0.86   0.232
5302.013  5301.896     42.2   8.13   2.767
5302.374  5302.258    156.1   7.99   2.373
5302.583  5302.466     18.2   3.71   1.228
5303.293  5303.177     18.5   1.13   0.262
5303.602  5303.485     24.0   1.02   0.305
5303.940  5303.824     10.9   1.07   0.422
5304.248  5304.132     40.0   1.42   0.438
5305.939  5305.822     36.7   0.88   0.309
5306.532  5306.415      6.0   0.65   0.271
5307.429  5307.312    149.0   5.02   2.618
5308.507  5308.390     41.9   1.32   0.399
5308.749  5308.633     20.0   0.43   0.234
5310.543  5310.426     10.9   0.42   0.132
5310.759  5310.642     18.2   0.41   0.130
5311.529  5311.412     21.5   3.20   0.794
5312.721  5312.604     19.6   0.72   0.215
5312.926  5312.809     47.8   1.07   0.704
5313.309  5313.192     27.9   0.94   0.381
5313.659  5313.542     43.4   2.79   0.753
5314.993  5314.876     20.6   1.58   0.337
5315.143  5315.026     62.7   1.71   0.486
5315.855  5315.738     19.0   1.05   0.301
5316.761  5316.644    208.0  14.36   5.533
5317.615  5317.498     33.1   1.23   0.427
5318.425  5318.308     40.7   0.76   0.295
5318.844  5318.727     43.5   1.78   0.560
5319.315  5319.198     26.9   5.22   1.339
5319.884  5319.767     59.6   1.24   0.629
5320.111  5319.994     54.8   1.67   0.611
5320.883  5320.765     14.2   0.81   0.337
5321.184  5321.067     68.5   1.41   0.911  5321.109   26.0   35768   54555   -1.261  1.000 12  NIST
5321.848  5321.731     12.2   1.25   0.445
5322.122  5322.005    112.8   3.60   2.225
5322.847  5322.730     20.2   0.63   0.153
5323.654  5323.537     19.5   6.60   1.797
5324.193  5324.076    191.4  23.82   5.542
5324.319  5324.202    158.7  24.91   3.995
5325.354  5325.237     28.3   0.67   0.238
5325.631  5325.514     56.4   1.27   0.378  5325.553   26.1   25982   44754   -3.210  1.000 99  KFE
5326.223  5326.106     81.1   4.86   1.000  5326.140   26.0   28820   47590   -2.210  1.000 99  KFEm
5326.895  5326.777     35.9   0.97   0.335
5327.352  5327.235     31.1   6.24   1.513
5327.768  5327.651     68.0  14.30   4.432
5328.282  5328.165    380.6   0.00   4.755
5328.679  5328.562    139.0  11.48   2.814
5329.220  5329.103    115.0   5.08   1.721
5329.867  5329.750     78.9   2.79   1.105
5330.061  5329.944     94.7   2.56   1.437
5330.623  5330.505     21.0   0.71   0.278
5331.534  5331.416     95.6   1.80   0.424
5332.430  5332.313      8.6   0.82   0.278
5332.739  5332.622     85.1   3.12   0.742
5332.982  5332.865    157.8   5.82   2.858
5333.294  5333.177     27.7   3.48   1.391
5333.782  5333.665     34.0   3.19   1.743
5334.318  5334.201     20.1   1.81   0.833
5334.941  5334.824     51.3   2.37   0.740
5336.247  5336.130     14.0   1.34   0.423
5336.590  5336.473     16.6   1.50   0.412
5336.864  5336.747    104.8   2.57   1.643
5337.819  5337.701     51.3   0.99   0.185
5338.388  5338.270     41.5   1.25   0.598
5338.633  5338.516      5.6   0.69   0.171
5339.514  5339.397     30.2   2.80   0.995
5340.013  5339.895    166.9  12.28   2.666
5340.527  5340.409     45.1   5.32   0.674
5341.120  5341.003    262.6   7.62   3.086
5341.379  5341.262     36.8   4.77   1.594
5342.779  5342.662     58.1   1.66   0.811
5343.033  5342.916      8.6   1.51   0.407
5343.501  5343.383    101.7   2.19   1.472
5344.539  5344.422     19.0   2.09   0.733
5344.830  5344.713     25.1   2.24   0.669
5345.642  5345.524     17.3   2.36   0.774
5345.884  5345.767    181.1   5.39   2.818
5346.122  5346.004     33.5   3.50   1.367
5346.630  5346.513     41.7   1.73   0.503
5346.884  5346.766     13.7   0.65   0.205
5347.580  5347.463     10.7   1.20   0.270
5347.798  5347.680     16.4   1.27   0.514
5348.133  5348.015     18.8   1.46   0.324
5348.404  5348.286    162.1   4.97   3.008
5348.827  5348.709     10.8   0.56   0.212
5349.173  5349.055     10.4   2.03   0.409
5349.537  5349.419    128.2   5.87   2.559
5349.833  5349.715     93.7   5.31   1.776
5350.147  5350.030     20.6   3.21   0.787
5350.425  5350.308     20.8   0.57   0.185
5350.931  5350.813      8.3   1.46   0.518
5351.138  5351.021     37.8   1.10   0.416
5352.115  5351.997     64.0   1.97   0.487
5353.500  5353.382    161.1   6.56   2.662
5355.792  5355.674      9.4   0.61   0.151
5356.167  5356.049     12.6   2.05   0.589
5357.040  5356.922     10.4   1.16   0.389
5357.264  5357.146     15.6   1.05   0.406
5358.191  5358.073     35.6   2.59   0.783
5359.275  5359.157     23.1   1.48   0.376
5359.766  5359.648      7.5   1.14   0.340
5361.668  5361.550    102.8  14.83   4.813
5362.896  5362.778    137.9   7.06   2.245
5364.515  5364.397     12.8   0.62   0.211
5364.954  5364.836    137.4   5.28   2.005
5365.483  5365.365    109.9   3.97   2.157
5366.497  5366.379     13.5   0.56   0.161
5366.732  5366.614     43.3   1.11   0.565
5366.958  5366.840      6.9   1.93   0.599
5367.548  5367.430    142.0   4.67   1.789
5367.754  5367.636     10.5   2.74   1.004
5368.565  5368.447     26.3   3.98   1.186
5368.960  5368.842     11.0   0.64   0.230
5369.437  5369.319     10.1   0.96   0.409
5369.680  5369.562    116.3   5.06   1.554
5370.045  5369.927    157.3   8.42   2.193
5370.392  5370.274     36.7   5.12   1.156
5371.083  5370.965     26.2   4.53   1.560
5371.282  5371.164     53.7   5.95   2.923
5371.564  5371.446    329.2   6.13   3.945
5371.850  5371.732     55.5   7.00   2.559
5372.022  5371.904     39.2   6.77   1.386
5373.791  5373.673     88.0   2.82   1.537
5374.877  5374.758      7.4   1.35   0.305
5375.352  5375.234      7.9   1.93   0.713
5376.220  5376.102      6.8   0.67   0.273
5376.670  5376.552     16.1   1.55   0.432
5376.913  5376.795     38.9   0.83   0.404
5377.138  5377.020     22.0   1.73   0.576
5377.695  5377.577     94.3   1.46   0.628
5377.894  5377.776     16.4   2.24   0.810
5378.301  5378.183     12.3   0.52   0.111
5379.657  5379.539     97.4   2.89   1.892
5380.404  5380.285      7.5   0.86   0.252
5380.803  5380.684     16.1   2.27   0.725
5381.119  5381.000    112.1   6.13   1.693
5381.844  5381.726     16.4   0.78   0.113
5382.360  5382.242     37.4   1.62   0.389
5383.053  5382.934     12.2   2.98   0.792
5383.451  5383.332    163.0   8.79   2.333
5383.633  5383.515     14.9   6.85   0.790
5384.714  5384.596     20.4   1.65   0.531
5385.227  5385.109     21.0   1.55   0.547
5385.664  5385.546     18.4   2.59   0.800
5385.978  5385.859     11.7   1.98   0.516
5386.411  5386.293     61.9   3.15   1.192  5386.335   26.0   33507   52067   -1.700  1.000 10  NIST
5387.044  5386.926     55.2   1.97   0.917
5387.599  5387.481     69.1   1.38   0.518
5388.438  5388.320     60.9   4.96   1.589
5389.253  5389.134     42.6   2.38   0.949
5389.565  5389.447    105.3   2.86   1.797
5390.046  5389.927     51.0   5.94   2.193
5390.481  5390.362     34.8   5.79   0.566
5390.596  5390.477     52.6   5.85   0.500
5391.508  5391.389    108.5  17.19   3.024
5391.669  5391.551    101.0  17.04   2.457
5392.121  5392.002     19.8   0.93   0.315
5392.403  5392.284     28.7   1.25   0.399
5393.259  5393.140    164.5  11.63   2.688
5393.972  5393.853      5.5   1.36   0.409
5394.449  5394.331      8.1   1.40   0.401
5394.757  5394.639    192.7   4.72   2.571
5395.298  5395.179     46.3   1.07   0.556
5395.527  5395.408      7.2   0.65   0.106
5396.330  5396.211     39.0   1.56   0.374
5396.692  5396.573     78.2   9.73   1.920
5397.202  5397.083    309.1  15.34   5.517
5397.689  5397.570     71.6   6.09   1.496
5397.885  5397.766      6.8   0.95   0.415
5398.364  5398.245     98.0   2.97   1.592
5399.556  5399.437     85.8   1.33   0.435
5400.624  5400.505    197.4  10.83   3.239
5401.373  5401.254     61.5   3.09   1.390  5401.264   26.0   34844   53353   -1.720  1.000 12  NIST
5402.014  5401.895     24.1   0.70   0.059
5402.141  5402.022     33.9   0.71   0.112
5402.849  5402.730     36.8   1.41   0.435
5403.917  5403.798    107.7   5.19   1.789
5404.215  5404.096    191.0   8.47   2.392
5404.673  5404.555     44.7   6.12   1.986
5405.092  5404.973     44.0   4.96   1.453
5405.450  5405.331     87.8  10.79   2.398
5405.870  5405.751    313.2  14.73   5.148
5406.396  5406.277     44.6   8.26   1.735
5406.858  5406.739     66.9   1.80   1.082
5407.516  5407.397    199.6  12.43   3.370
5408.216  5408.097     12.3   0.90   0.265
5409.223  5409.104     94.9   7.08   1.333
5409.834  5409.715    252.9  12.88   5.438
5410.551  5410.432     18.5   2.79   0.964
5410.997  5410.878    138.2   5.32   1.823
5411.296  5411.177     60.5   2.43   0.782
5411.475  5411.356     16.0   2.23   0.236
5412.861  5412.742     44.2   1.28   0.359
5413.175  5413.056     26.3   1.38   0.524
5413.754  5413.635     63.6   1.17   0.390
5414.147  5414.028     37.4   1.34   0.533
5415.072  5414.953     19.6   3.76   1.539
5415.293  5415.173    161.8   5.99   1.942
5417.124  5417.005     61.7   1.62   1.001
5418.185  5418.066     26.8   2.32   0.936
5418.853  5418.734     84.0   2.07   1.299
5419.267  5419.148     14.1   1.47   0.453
5420.433  5420.314    194.9   3.75   1.274
5421.017  5420.898     28.8   1.21   0.571
5421.255  5421.136     54.6   1.40   0.423
5421.486  5421.366     17.4   2.88   0.821
5421.925  5421.805     26.1   1.19   0.168
5422.234  5422.115     27.4   1.10   0.576
5422.550  5422.431     10.2   0.80   0.315
5423.564  5423.445     16.7   2.58   0.723
5423.866  5423.747     33.5   5.71   2.141
5424.159  5424.040    183.4   8.68   2.469
5424.711  5424.592    109.6   5.19   1.909
5425.335  5425.215     53.3   1.11   0.560  5425.257   26.1   25805   44233   -3.290  1.000 99  KFE
5426.336  5426.217     73.0   2.96   1.537
5428.416  5428.296      6.1   0.89   0.242
5428.859  5428.740     18.7   4.50   1.757
5429.239  5429.119     53.4   7.48   1.378
5429.741  5429.621    376.9   2.06   5.639
5430.439  5430.320     31.3   3.40   0.745
5431.591  5431.471     12.9   1.20   0.279
5432.628  5432.508    167.6   6.87   2.828
5433.039  5432.919     94.8   4.38   1.571
5433.463  5433.344     10.2   1.89   0.451
5433.721  5433.602     12.8   0.89   0.163
5434.381  5434.261     37.1   6.16   2.220
5434.622  5434.503    246.8   9.53   3.500
5435.243  5435.124     34.9   3.64   1.112
5435.944  5435.824    103.0   3.01   2.100
5436.383  5436.264     68.4   1.86   1.055
5436.703  5436.583    118.5   5.45   2.444
5437.219  5437.099     81.1   6.52   2.880
5438.145  5438.025      6.1   0.62   0.248
5438.376  5438.256     19.7   0.94   0.323
5439.101  5438.981      8.6   0.57   0.230
5440.678  5440.559     10.5   1.65   0.695
5441.425  5441.305     59.9   1.36   0.711  5441.354   26.0   34782   53155   -1.590  1.000 12  NIST
5442.475  5442.356     32.6   2.41   0.932
5443.494  5443.374      8.8   1.07   0.435
5443.686  5443.566      8.2   1.07   0.349
5444.674  5444.554     34.8   1.23   0.363
5445.130  5445.011    131.5   5.29   2.016
5446.636  5446.516     89.2  18.38   2.238
5446.721  5446.601    117.1  17.81   2.196
5447.006  5446.886    275.0   6.97   3.354
5447.274  5447.154     46.2   7.39   2.500
5448.463  5448.343     39.3   0.90   0.351
5448.985  5448.865      9.4   0.65   0.160
5449.246  5449.126     30.5   1.20   0.485
5450.889  5450.769     29.4   1.31   0.485
5451.199  5451.079     25.4   1.04   0.362
5452.165  5452.045     42.6   2.20   0.675
5452.359  5452.239      6.9   2.05   0.261
5452.923  5452.803     36.9   1.20   0.356
5453.317  5453.197     25.0   0.52   0.135
5453.735  5453.615     42.0   2.91   0.719
5454.111  5453.991     42.5   5.79   1.984
5454.662  5454.542     31.6   0.33   0.153
5455.392  5455.272     33.7   5.50   2.365
5455.660  5455.540    324.2   6.02   3.107
5455.953  5455.833     47.5   7.41   2.954
5456.603  5456.483     33.2   3.18   0.815
5457.544  5457.424     62.8   2.96   1.330
5459.468  5459.347      6.3   0.78   0.186
5460.582  5460.462     87.3   2.81   1.235
5460.963  5460.843     33.6   1.21   0.382  5460.871   26.0   24772   43079   -3.530  1.000 21  NIST
5461.633  5461.513     53.1   1.00   0.347  5461.550   26.0   35856   54161   -1.612  1.000 12  NIST
5462.587  5462.467     69.4   1.52   0.707
5463.052  5462.932    115.0   3.97   1.590
5463.366  5463.245    123.6   4.25   1.605
5464.029  5463.908     41.1   4.40   1.384
5464.365  5464.245     72.5   2.02   0.597  5464.278   26.0   33413   51708   -1.582  1.000 21  NIST
5465.877  5465.757      8.1   1.02   0.352
5466.489  5466.369    105.6   2.53   1.549
5467.068  5466.947     74.6   1.38   0.697
5467.862  5467.741     16.4   1.28   0.338
5468.197  5468.077     30.9   0.99   0.336
5468.468  5468.348     19.1   0.38   0.176
5469.392  5469.271     44.0   2.91   1.177
5470.181  5470.060     52.7   1.06   0.568  5470.092   26.0   35856   54133   -1.610  1.000 12  NIST
5470.708  5470.588    174.7   7.34   2.087
5471.288  5471.167     54.1   2.42   0.790
5472.366  5472.246     12.8   0.72   0.280
5472.789  5472.669     80.1   1.55   0.905
5473.255  5473.134     46.8   3.14   0.705
5473.551  5473.430     35.1   6.49   2.521
5473.987  5473.867    110.1   4.80   1.578
5474.315  5474.194     63.7   1.96   1.091
5474.539  5474.418     19.5   1.07   0.268
5474.842  5474.722      5.7   0.78   0.129
5475.511  5475.391     11.3   0.82   0.233
5476.363  5476.242    124.0   5.59   1.797
5476.671  5476.551    151.3   8.04   2.562
5477.003  5476.883    228.2  12.33   3.446
5477.562  5477.442     19.0   3.12   1.013
5477.800  5477.679     81.4   2.58   0.820
5478.522  5478.401     80.0   1.88   0.793
5480.602  5480.481     33.1   2.36   0.565
5480.922  5480.801    114.9   4.10   1.670
5481.438  5481.318    230.5  10.56   3.951
5481.971  5481.850     80.0   4.16   1.591
5482.350  5482.229     14.6   1.14   0.142
5483.194  5483.073     79.3   2.37   1.095
5483.446  5483.325    133.0   3.11   1.222
5484.039  5483.918     27.6   2.77   1.250
5484.712  5484.592     13.8   2.02   0.579
5485.795  5485.675     19.2   1.54   0.365
5487.236  5487.116     70.7   3.53   0.804
5487.608  5487.487     68.1   1.84   0.541
5487.842  5487.721    125.4   6.79   2.035
5488.263  5488.142     64.1   3.47   0.513
5489.064  5488.943     30.2   0.61   0.241
5489.942  5489.821     41.0   4.34   0.827
5490.240  5490.119     81.1   2.66   1.494
5490.848  5490.728     78.1  11.57   5.330
5491.915  5491.794     33.7   1.73   0.446
5492.975  5492.854     35.6   1.33   0.303
5493.331  5493.210     37.6   2.98   0.986
5493.588  5493.468     77.9   3.01   0.793
5493.934  5493.813     55.7   4.75   1.222
5494.555  5494.435     59.4   2.37   0.713  5494.461   26.0   32874   51069   -1.960  1.000 99  KFEm
5494.965  5494.844     40.6   2.45   0.657
5495.763  5495.642      8.5   0.33   0.152
5496.644  5496.524     26.1   0.77   0.238
5497.390  5497.269     18.2   4.46   1.354
5497.603  5497.482    209.2   6.58   3.030
5498.007  5497.886     17.9   1.91   0.464
5499.636  5499.515      9.4   2.93   0.895
5501.567  5501.446    191.7   8.54   3.376
5502.172  5502.051     28.8   1.79   0.377
5503.151  5503.030     96.3   9.92   2.490
5503.586  5503.465     11.9   1.06   0.164
5504.000  5503.879     53.6   6.45   1.464
5504.468  5504.347     34.4   3.62   0.600
5505.958  5505.837    124.2   4.07   1.047
5506.595  5506.474     45.0   3.08   1.039
5506.878  5506.757    196.8   7.65   3.251
5507.834  5507.712     13.6   1.31   0.287
5508.509  5508.388     34.6   0.95   0.375
5508.720  5508.599     26.2   0.86   0.428
5509.683  5509.561     22.5   5.53   1.899
5510.049  5509.928    107.3   8.26   2.704
5510.758  5510.637     41.4   3.07   1.413
5511.878  5511.757     47.3   3.00   0.568
5512.366  5512.245     84.1   7.39   1.647
5512.595  5512.474    132.8   4.45   1.698
5513.075  5512.954    113.9   3.67   1.702
5514.428  5514.307    108.2   6.11   1.613
5514.618  5514.496    117.5   6.20   1.187
5514.883  5514.761     24.7   1.83   0.603
5515.138  5515.016     12.4   1.60   0.663
5515.714  5515.593     18.4   0.47   0.085
5516.151  5516.030      6.8   2.07   0.293
5516.576  5516.455     19.4   2.70   0.413
5516.858  5516.736    141.7   2.05   0.753
5517.158  5517.037     46.3   1.55   0.521
5517.630  5517.509     24.4   0.72   0.129
5518.166  5518.044      5.2   2.22   0.500
5518.605  5518.483      7.7   0.65   0.121
5519.675  5519.553     32.5   1.08   0.296
5519.873  5519.751      6.2   1.03   0.345
5520.591  5520.470     25.6   0.98   0.364
5521.039  5520.917     22.0   1.59   0.447
5521.246  5521.125     30.9   5.63   1.903
5521.619  5521.497     19.9   3.96   1.108
5522.540  5522.418     72.5   1.81   1.071  5522.447   26.0   33947   52050   -1.400  1.000 10  NIST
5523.392  5523.271     50.6   2.52   1.168
5524.069  5523.947     24.5   0.80   0.194
5524.343  5524.222     12.8   0.69   0.270
5525.182  5525.061     27.4   3.26   1.358
5525.642  5525.521     86.1   2.22   1.069  5525.539   26.0   34122   52214   -1.184  1.000 99  KFEm
5525.868  5525.746     16.2   2.25   0.974
5526.906  5526.785    109.8   2.92   1.636
5527.673  5527.551     17.1   0.81   0.236
5528.291  5528.169     33.0   5.55   1.824
5528.511  5528.390    219.2   9.30   3.040
5528.983  5528.861     43.5   3.29   0.677
5529.253  5529.132     46.0   0.88   0.381
5530.079  5529.957     12.1   1.03   0.262
5530.566  5530.444     20.8   1.02   0.259
5530.875  5530.754     85.8   1.19   0.580
5532.077  5531.956     32.7   2.02   0.505
5532.226  5532.104     11.3   1.95   0.363
5532.879  5532.758    106.2   4.54   2.022
5533.097  5532.975     39.5   4.22   1.801
5533.907  5533.785     11.1   1.31   0.330
5534.914  5534.792     78.5   9.54   2.816
5535.564  5535.442    155.5   8.60   2.857
5536.386  5536.264      5.5   0.65   0.225
5536.679  5536.557     34.7   1.12   0.564
5537.853  5537.731    129.9   2.80   0.873
5538.612  5538.490     69.4   1.60   1.117  5538.517   26.0   34017   52067   -1.559  1.000 99  KFE
5539.374  5539.252     50.4   1.09   0.708  5539.284   26.0   29372   47420   -2.610  1.000 01  NIST
5539.915  5539.793     24.4   1.15   0.392
5540.576  5540.454      5.8   0.90   0.222
5540.966  5540.844     10.3   1.77   0.478
5543.121  5542.999     33.3   3.17   0.922
5543.281  5543.159     92.4   3.50   1.195
5544.034  5543.913     90.9   2.54   1.478
5544.703  5544.581     23.0   0.80   0.184
5545.358  5545.236      6.5   0.85   0.342
5546.058  5545.936     42.0   2.70   1.204
5546.608  5546.486     85.2   3.75   1.372  5546.500   26.0   35257   53282   -1.080  1.000 12  NIST
5547.112  5546.990     78.9   1.94   0.506
5548.539  5548.417      7.8   0.69   0.181
5549.741  5549.619     23.2   0.71   0.171
5550.052  5549.930     35.5   1.18   0.646
5552.063  5551.941     11.4   0.64   0.163
5552.322  5552.200     17.0   0.32   0.144
5552.793  5552.671     17.6   0.99   0.273  5552.691   26.0   39970   57974   -1.800  1.000 12  NIST
5553.262  5553.140      8.8   1.13   0.236
5553.733  5553.611    126.0   4.06   2.022
5554.975  5554.853    129.3   4.27   1.108
5555.791  5555.669      9.1   1.12   0.334
5557.121  5556.998     28.7   1.49   0.725
5557.533  5557.411     12.2   0.59   0.144
5558.043  5557.920    110.2   1.93   0.551
5558.878  5558.756     15.4   0.59   0.184
5559.165  5559.043      5.2   0.77   0.234
5559.747  5559.624     16.9   1.09   0.432
5559.973  5559.851      6.4   0.87   0.234
5560.310  5560.188     77.5   2.64   1.499  5560.207   26.0   35768   53748   -1.000  1.000 12  NIST
5561.344  5561.222     24.6   1.43   0.409
5561.758  5561.636     11.7   2.38   0.610
5562.212  5562.090     25.6   2.82   0.557
5562.804  5562.681     88.8   3.77   1.108
5563.740  5563.618    154.4   2.88   0.963
5565.577  5565.455     68.2   1.72   0.557
5565.805  5565.683    108.8   3.51   1.468
5566.162  5566.040     27.9   2.23   0.543
5566.755  5566.632      8.7   1.27   0.315
5566.882  5566.759     27.0   1.30   0.241
5567.467  5567.345    133.9   4.76   2.014
5567.849  5567.727     11.0   0.81   0.122
5568.170  5568.047      9.2   0.72   0.254
5568.959  5568.837     34.9   1.13   0.375
5569.720  5569.597    168.7   8.38   2.261
5570.115  5569.992     20.8   3.59   0.979
5570.524  5570.402     27.2   1.28   0.424
5572.290  5572.167      5.6   1.54   0.432
5572.938  5572.815    191.8   9.11   2.651
5573.184  5573.061     97.0   2.93   0.942
5573.755  5573.632      9.4   1.40   0.447
5574.480  5574.357      7.3   1.93   0.551
5576.177  5576.054    123.6   5.34   2.216  5576.090   26.0   27666   45595   -0.840  1.000 10  KFE
5576.366  5576.243     12.2   4.32   0.975
5577.124  5577.001     23.5   0.58   0.238
5577.446  5577.323      6.4   0.47   0.181
5578.818  5578.695    118.3   3.89   1.892
5579.442  5579.320     34.0   2.21   0.414
5579.669  5579.547      8.3   1.73   0.719
5579.979  5579.856      5.1   1.12   0.270
5580.517  5580.395     12.9   1.09   0.397
5581.714  5581.591      6.0   1.21   0.280
5582.066  5581.944    134.7   4.70   2.124
5582.415  5582.293      6.7   2.00   0.565
5583.058  5582.936     11.3   0.40   0.130
5583.351  5583.228      5.5   0.51   0.139
5584.081  5583.958     19.8   0.50   0.154
5584.599  5584.476     43.8   1.26   0.467
5584.875  5584.752     82.2   2.57   0.814
5585.247  5585.124     13.2   3.25   0.825
5585.755  5585.632     17.4   0.58   0.244
5586.127  5586.005      5.3   0.74   0.228
5586.385  5586.262     22.5   3.01   0.794
5586.851  5586.728    203.6   8.13   2.546
5587.057  5586.934     36.2   4.33   1.464
5587.677  5587.554     72.9   2.68   0.911  5587.573   26.0   33413   51305   -1.650  1.000 21  NIST
5587.965  5587.842    109.7   3.16   2.027
5588.205  5588.082      5.4   1.67   0.427
5588.859  5588.736    170.6   9.54   2.624
5589.457  5589.334     54.3   1.63   0.922
5589.947  5589.824     34.9   1.22   0.228
5590.216  5590.093    125.5   3.59   2.323
5590.844  5590.721     76.1   4.32   1.634
5591.454  5591.331     11.7   0.48   0.127
5592.290  5592.167    113.8  22.18   2.358
5592.421  5592.298    116.7  22.18   3.996
5593.069  5592.946      9.1   0.68   0.194
5593.837  5593.714     68.4   1.10   0.713
5594.634  5594.511    253.6  15.30   7.789
5595.163  5595.040     17.3   0.44   0.126
5597.160  5597.037      8.5   1.51   0.339
5598.510  5598.387    259.8  12.25   5.986
5600.251  5600.128    103.6  19.64   7.182
5601.174  5601.050     32.2   4.97   1.523
5601.382  5601.258    156.6   6.66   2.035
5601.903  5601.780     19.4   1.38   0.517
5602.162  5602.039      5.3   0.99   0.201
5602.712  5602.588     23.0   4.52   2.072
5602.974  5602.850    260.3   7.79   1.481
5603.170  5603.046     28.9   8.06   1.149
5603.845  5603.721     51.4   1.65   0.641
5605.034  5604.911     38.8   1.75   0.516
5606.007  5605.884      5.1   0.66   0.106
5607.114  5606.990     11.9   1.04   0.422
5607.763  5607.640     39.7   1.58   0.781
5609.085  5608.961     34.5   1.23   0.451  5608.974   26.0   33947   51771   -2.360  1.000 99  KFE
5610.048  5609.924     21.8   1.87   0.547
5610.373  5610.249     17.9   1.46   0.514
5611.458  5611.335     34.0   1.23   0.576  5611.361   26.0   29320   47136   -2.960  1.000 99  KFE
5612.419  5612.296      5.8   0.28   0.083
5614.381  5614.257     32.1   1.17   0.379
5614.875  5614.752     65.7   2.16   0.609
5615.416  5615.293    146.2   7.95   2.337
5615.739  5615.616    223.2   6.40   2.665
5615.948  5615.824     45.5   3.35   1.363
5616.163  5616.040     21.0   3.17   1.124
5617.276  5617.152     66.6   2.71   1.210
5618.472  5618.348      7.5   0.81   0.187
5618.738  5618.614     79.8   1.89   1.251  5618.631   26.0   33947   51740   -1.260  1.000 99  KFE
5619.339  5619.216     22.0   0.90   0.364
5619.703  5619.579     65.7   1.04   0.455  5619.587   26.0   35379   53169   -1.480  1.000 99  KFE
5620.143  5620.019     26.6   0.98   0.452
5620.575  5620.451     88.9   4.39   1.247
5621.385  5621.261      9.2   1.03   0.442
5621.701  5621.578     17.8   0.35   0.092
5622.306  5622.183     12.3   1.48   0.477
5623.053  5622.929     31.5   1.04   0.311
5624.135  5624.011     81.9   3.38   0.997
5624.660  5624.536    171.0   6.90   2.005
5624.965  5624.841     55.5   2.67   0.987
5625.426  5625.302     67.6   2.77   0.672
5625.773  5625.649     48.3   4.35   1.373
5626.122  5625.998     46.0   2.15   0.511
5626.723  5626.600     12.2   1.46   0.429
5627.190  5627.066      7.4   0.82   0.226
5627.733  5627.609    107.5   4.56   1.329
5628.241  5628.117      5.9   0.83   0.395
5628.442  5628.318     38.6   0.88   0.184
5628.741  5628.618     43.2   1.43   0.575
5630.235  5630.111      7.5   0.80   0.258
5631.077  5630.953      5.2   0.37   0.147
5631.859  5631.735     20.6   1.71   0.822
5632.565  5632.441     11.2   0.63   0.142
5634.048  5633.924     90.2   2.51   0.880
5634.603  5634.479     13.0   2.28   0.715
5635.257  5635.133     11.5   3.52   0.942
5635.929  5635.805     65.0   2.66   1.258  5635.824   26.0   34329   52067   -1.560  1.000 99  KFE
5636.304  5636.180     25.1   1.89   0.658
5636.804  5636.680     54.5   1.62   0.750  5636.696   26.0   29357   47093   -2.530  1.000 99  KFE
5637.219  5637.095     63.2   1.89   1.069
5637.504  5637.380     54.4   1.11   0.425
5637.800  5637.676     14.8   0.96   0.333
5638.365  5638.241    108.2   2.73   1.780  5638.262   26.0   34040   51771   -0.690  1.000 99  KFE
5638.853  5638.729     26.8   0.51   0.082
5639.457  5639.333      6.0   1.19   0.366
5639.663  5639.539     19.3   0.63   0.315
5640.211  5640.087      6.1   0.61   0.204
5640.409  5640.285     32.0   0.64   0.238
5641.089  5640.965     93.0   4.30   1.305
5641.552  5641.428    102.8   2.68   1.084
5641.982  5641.858     51.1   1.56   0.541
5642.472  5642.348     17.5   2.04   0.355
5642.815  5642.691     33.3   4.12   1.714
5643.186  5643.062     34.1   1.21   0.630
5644.056  5643.932     59.2   5.94   0.993
5644.215  5644.091    111.1   6.34   0.789
5645.114  5644.990      5.1   1.04   0.250
5645.704  5645.580     56.2   1.12   0.490
5645.933  5645.808     31.3   0.73   0.234
5646.212  5646.088     43.8   1.25   0.488
5646.786  5646.662     24.2   1.55   0.429
5647.341  5647.217     66.1   1.59   0.680
5647.921  5647.797     13.5   1.29   0.554
5648.370  5648.246     12.1   0.95   0.255
5648.672  5648.547     45.3   1.36   0.692
5649.190  5649.066     21.6   1.89   0.627
5649.495  5649.371     19.3   1.10   0.391
5649.769  5649.645     80.7   1.22   0.401
5650.092  5649.968     57.6   1.44   0.631
5650.564  5650.440      7.7   0.62   0.185
5650.790  5650.665     60.7   1.12   0.542
5651.576  5651.452     42.0   1.85   0.935  5651.470   26.0   36079   53769   -1.780  1.000 99  KFE
5652.420  5652.296     53.6   1.52   0.822  5652.320   26.0   34363   52050   -1.760  1.000 99  KFE
5653.974  5653.850     68.5   2.45   0.964
5654.605  5654.480     49.4   8.89   2.514
5655.017  5654.893     36.5   3.39   0.784
5655.282  5655.158     74.6   2.16   0.971
5655.597  5655.473     94.1   2.58   1.517
5657.545  5657.421     55.2   1.87   0.867
5657.982  5657.858    107.3   2.81   1.661
5658.389  5658.265     16.3  58.95   1.102
5658.478  5658.354     83.1  57.52   2.344
5658.804  5658.680    344.3  12.70   7.620
5659.184  5659.060     32.7   5.47   1.916
5659.683  5659.559     41.2   0.89   0.257
5660.671  5660.547     29.3   3.87   1.769
5660.881  5660.756     57.8   4.76   1.332
5661.457  5661.332     55.2   1.36   0.726
5662.254  5662.129     73.8   4.09   1.197
5662.626  5662.501    121.7   3.91   2.254
5663.029  5662.904     97.4   2.30   1.384
5664.111  5663.986     72.4   1.45   0.632
5664.660  5664.536     23.5   0.89   0.310
5665.678  5665.553     65.6   2.25   0.749
5666.805  5666.681     39.1   2.95   1.240
5667.246  5667.121     75.3   3.15   0.686
5667.628  5667.503     96.1   4.72   1.283
5668.472  5668.348     53.9   1.88   0.754
5669.123  5668.998     80.1   3.79   1.486
5669.827  5669.702     36.3   1.32   0.551
5670.047  5669.922     39.1   1.26   0.299
5670.956  5670.831    104.9   2.51   1.502
5671.579  5671.454     13.2   1.46   0.411
5671.912  5671.788     75.7   1.56   0.413
5673.514  5673.390      9.5   0.68   0.129
5674.282  5674.157      5.3   0.93   0.176
5675.533  5675.408     90.1   2.42   0.678
5675.830  5675.705     14.5   1.89   0.765
5677.800  5677.675     25.0   0.66   0.296  5677.684   26.0   33096   50704   -2.680  1.000 99  KFE
5678.478  5678.353     18.6   0.52   0.219
5678.707  5678.582     20.0   0.62   0.271
5679.134  5679.009     82.6   1.58   1.127  5679.025   26.0   37521   55125   -0.680  1.000 99  KFE
5679.738  5679.613      6.3   0.42   0.120
5680.028  5679.903     30.9   1.09   0.348
5680.342  5680.217     36.8   1.25   0.455  5680.241   26.0   33765   51365   -2.370  1.000 99  KFE
5681.070  5680.945      7.7   1.41   0.667
5681.279  5681.154     11.3   1.75   0.713
5681.836  5681.711      5.7   1.40   0.402
5682.310  5682.185     81.5   4.34   1.112
5682.726  5682.601    157.1   7.64   2.510
5683.145  5683.020     10.8   2.20   0.566
5683.535  5683.410      7.0   1.29   0.337
5683.857  5683.732      5.5   0.20   0.103
5684.299  5684.174     78.6   1.55   0.661
5684.591  5684.466     77.0   1.49   0.513
5684.840  5684.715      5.6   0.63   0.272
5686.272  5686.147     44.3   2.88   0.727
5686.430  5686.305     30.0   2.81   0.776
5686.640  5686.515    102.2   2.54   1.148
5686.942  5686.817     59.5   1.62   0.464
5687.500  5687.375      9.3   0.63   0.242
5688.319  5688.193    151.6   5.24   2.767
5688.646  5688.521     45.8   2.88   0.863
5689.577  5689.452     55.6   1.71   0.811
5690.536  5690.410     66.6   0.93   0.583
5691.005  5690.880      5.9   1.03   0.312
5691.258  5691.133     10.5   0.90   0.396
5691.612  5691.487     75.3   4.17   1.166
5692.983  5692.858      9.0   1.06   0.391
5693.754  5693.629     73.6   1.94   1.057
5694.849  5694.724     44.5   1.16   0.521
5695.095  5694.970     67.5   1.61   0.881
5696.201  5696.076     34.7   0.68   0.190
5696.476  5696.351     23.8   0.73   0.367
5698.140  5698.015     49.0   6.23   0.829
5698.573  5698.448    194.6  19.42   7.441
5699.522  5699.397     11.8   1.08   0.282
5700.328  5700.203    123.8   2.74   0.916
5700.599  5700.474     18.1   1.80   0.711
5701.214  5701.089     56.9   1.23   0.320
5701.660  5701.535    140.0   5.05   2.057  5701.545   26.0   20641   38175   -2.130  1.000 99  KFE
5702.016  5701.890     17.5   2.03   0.667
5702.424  5702.299     73.5   1.06   0.439
5702.775  5702.649     42.4   0.84   0.405
5703.017  5702.892     15.7   0.89   0.270
5703.696  5703.571    112.8   3.22   1.214
5704.846  5704.720     39.5   1.02   0.518
5705.575  5705.449     72.1   1.74   0.938  5705.466   26.0   34692   52214   -1.455  1.000 99  KFE
5706.151  5706.025    141.5   7.60   2.389
5706.836  5706.711     22.6   1.34   0.565
5707.117  5706.991    130.0   2.21   0.954
5707.358  5707.232     20.1   1.77   0.607
5707.839  5707.713      5.7   0.54   0.137
5708.246  5708.121     91.4   4.72   2.253
5708.492  5708.366    103.9   5.74   1.634
5709.054  5708.928     29.0   2.70   0.889
5709.575  5709.450    265.1   8.77   3.017
5710.039  5709.913     30.9   1.89   0.213
5711.202  5711.077    134.2   3.62   1.851
5711.410  5711.285      6.2   2.39   0.626
5711.966  5711.841    155.8   6.05   2.218
5712.237  5712.112     99.5   2.68   1.575
5712.476  5712.350      8.7   2.17   0.433
5712.882  5712.756     59.5   2.92   0.775
5713.994  5713.868     27.0   1.40   0.569
5714.266  5714.140     35.9   1.32   0.546
5714.652  5714.526     16.2   0.49   0.096
5715.204  5715.078    109.2   2.78   1.475
5715.569  5715.443     11.9   1.61   0.345
5716.562  5716.436     35.6   1.02   0.499
5717.397  5717.271     10.8   0.66   0.316
5717.941  5717.816     94.7   3.60   1.136  5717.835   26.0   34556   52040   -0.990  1.000 99  KFE
5718.226  5718.100     15.1   2.54   0.759
5719.194  5719.068     11.3   1.57   0.469
5719.933  5719.808     23.4   0.71   0.252
5720.554  5720.428     27.9   0.75   0.370
5721.012  5720.887     40.7   0.93   0.396
5721.829  5721.703     18.5   0.90   0.276
5722.585  5722.459      5.0   0.57   0.086
5723.807  5723.681     19.5   1.02   0.415
5724.183  5724.057     10.0   0.63   0.195
5724.560  5724.434     19.4   0.48   0.137
5725.750  5725.624     16.9   0.64   0.278
5727.158  5727.032    130.3   4.18   1.664
5727.770  5727.644     80.3   1.08   0.593
5729.008  5728.882     13.1   0.98   0.267
5729.298  5729.172      6.7   1.10   0.273
5730.956  5730.829     19.8   0.88   0.166
5731.361  5731.235     98.3   5.25   1.802
5731.878  5731.752     91.2   2.70   1.223  5731.762   26.0   34329   51771   -1.060  1.000 99  KFE
5732.416  5732.290     33.5   0.92   0.212
5732.941  5732.815     12.1   1.59   0.599
5734.122  5733.996     14.1   1.21   0.384
5734.681  5734.555     19.0   0.42   0.149
5735.808  5735.682     26.3   0.52   0.177
5737.177  5737.051     83.5   1.22   0.800
5737.554  5737.428      6.3   0.27   0.123
5738.351  5738.225     40.4   0.28   0.152
5738.638  5738.512     10.8   0.53   0.124
5739.175  5739.048      9.7   0.51   0.205
5739.587  5739.461     42.7   1.09   0.472
5740.090  5739.964     37.6   1.35   0.236
5740.982  5740.856     16.9   0.60   0.177
5741.333  5741.207     12.4   1.16   0.225
5741.963  5741.836     63.9   1.17   0.725  5741.846   26.0   34329   51740   -1.640  1.000 99  KFE
5742.178  5742.051      6.6   1.16   0.281
5743.069  5742.943     38.9   4.13   0.722  5742.961   26.0   33695   51103   -2.320  1.000 99  KFE
5743.546  5743.419     71.0   3.70   0.807
5744.040  5743.914     11.4   0.33   0.109
5744.889  5744.762      7.8   0.31   0.159
5746.523  5746.397     10.5   0.62   0.149
5747.423  5747.297      7.4   1.29   0.397
5747.798  5747.672     53.1   3.26   1.153
5748.048  5747.922     74.5   4.12   1.179
5748.464  5748.337     93.7   3.56   1.144
5749.015  5748.889     15.7   1.91   0.544
5749.420  5749.293     14.3   0.97   0.133
5749.568  5749.442      7.9   0.96   0.222
5751.310  5751.183      6.4   0.64   0.154
5752.149  5752.023     81.9   1.91   1.223  5752.023   26.0   36686   54067   -0.867  1.000 99  KFE
5752.394  5752.267      8.0   1.28   0.396
5752.952  5752.825     11.5   1.38   0.480
5753.241  5753.115    105.9   4.16   1.486  5753.121   26.0   34363   51740   -0.588  1.000 99  KFE
5753.746  5753.619     70.2   5.30   1.118
5754.203  5754.076     24.9   5.61   2.057
5754.507  5754.380     52.0   4.43   1.159
5754.769  5754.643    138.4   3.49   1.580
5755.297  5755.171     14.7   2.47   0.729
5756.941  5756.815     56.6   0.98   0.420
5757.740  5757.613      5.1   0.62   0.111
5758.896  5758.769     14.3   1.18   0.397
5759.385  5759.258     22.5   0.91   0.305
5759.650  5759.523     36.4   0.69   0.232
5760.467  5760.340     60.7   3.41   1.035  5760.345   26.0   29372   46727   -2.450  1.000 99  KFE
5760.945  5760.818     65.1   3.97   0.766
5761.359  5761.233     21.8   3.59   0.918
5761.649  5761.522     21.4   4.26   1.300
5762.492  5762.366     90.9   8.56   3.075
5763.079  5762.953    155.0   9.75   3.517
5763.544  5763.417      9.9   2.12   0.713
5766.440  5766.314     34.3   0.35   0.087
5767.451  5767.324      5.6   0.67   0.310
5768.484  5768.357      5.6   1.19   0.284
5769.161  5769.034     12.3   1.81   0.479
5769.448  5769.321     22.4   0.86   0.268
5769.758  5769.631      8.0   0.90   0.282
5770.628  5770.501     10.2   0.32   0.182
5771.708  5771.581     22.3   1.05   0.347
5772.259  5772.132     71.3   1.36   0.372
5772.518  5772.391     22.8   0.76   0.298
5773.572  5773.445      7.7   0.53   0.189
5774.153  5774.026     41.8   3.89   0.920
5774.677  5774.550     15.5   1.31   0.449
5775.198  5775.071     92.1   2.17   1.321  5775.080   26.0   34040   51350   -1.040  1.000 99  KFE
5776.328  5776.201      7.8   0.80   0.299
5776.813  5776.686     23.4   1.95   0.899
5777.911  5777.783      5.7   0.64   0.304
5778.575  5778.448     76.2   2.06   1.482
5779.780  5779.652     15.1   1.29   0.517
5780.467  5780.339     60.7   6.14   1.942
5780.721  5780.594     92.7   3.02   1.069
5780.939  5780.812     94.8   3.51   1.445
5781.305  5781.177     56.2   3.52   0.761
5781.878  5781.751     63.3   3.95   1.151
5782.233  5782.105    170.9   5.59   1.429
5782.715  5782.587     11.3   0.76   0.193
5783.185  5783.058     69.6   1.73   0.913
5783.989  5783.862     97.6   2.63   1.100
5784.488  5784.360     11.7   0.62   0.204
5784.780  5784.652     71.8   1.71   0.862
5785.089  5784.962     75.6   2.39   1.137
5785.399  5785.272     86.5   4.36   0.662
5785.810  5785.683    100.7   7.84   2.733
5786.074  5785.946     73.0   5.01   1.196
5787.123  5786.996     32.8   1.09   0.402
5788.042  5787.915     85.1   1.47   0.896
5788.508  5788.380     31.7   1.58   0.461
5789.007  5788.879      5.4   0.33   0.077
5789.943  5789.815      5.4   0.53   0.215
5790.254  5790.127     22.9   0.31   0.098
5790.771  5790.644     26.7   1.15   0.314
5791.108  5790.981    138.3   5.24   1.343
5791.637  5791.510     26.5   2.23   0.446
5791.902  5791.774     15.2   1.06   0.433
5793.181  5793.054     63.8   1.58   0.454
5793.754  5793.626      9.8   1.57   0.457
5794.036  5793.908     67.4   1.40   0.632
5796.192  5796.065     51.1   2.06   0.607
5796.552  5796.424      5.7   1.07   0.297
5796.828  5796.701     15.3   1.39   0.591
5797.572  5797.444     21.3   4.57   0.855
5797.732  5797.604     31.5   4.65   1.393
5797.979  5797.851     73.3   5.27   1.757
5798.294  5798.167     90.1   3.84   1.006
5798.613  5798.486     21.1   1.63   0.458
5799.942  5799.815      7.6   0.55   0.112
5800.910  5800.782      6.0   0.36   0.125
5801.355  5801.227     14.3   0.67   0.225
5801.852  5801.725      6.5   0.69   0.185
5804.162  5804.035     69.6   8.61   1.880
5804.533  5804.405     65.5  12.51   4.120
5805.337  5805.209     65.8   1.49   0.837
5805.886  5805.759     44.5   0.86   0.325
5806.401  5806.273      6.2   0.70   0.319
5806.838  5806.711     85.0   1.48   0.721
5807.239  5807.111      6.0   0.62   0.219
5807.912  5807.785     39.2   2.59   0.679
5808.395  5808.267     12.2   0.99   0.308
5808.645  5808.518      5.1   0.68   0.232
5809.335  5809.207     94.3   2.26   0.934
5809.999  5809.871      8.1   0.40   0.134
5810.906  5810.778     12.5   0.93   0.241
5811.272  5811.144      5.2   1.10   0.203
5811.689  5811.561     12.1   0.57   0.134
5812.037  5811.909     33.6   0.85   0.452
5812.562  5812.434      5.2   0.56   0.187
5812.953  5812.825     14.1   1.01   0.227
5813.841  5813.713      6.4   0.78   0.274
5814.086  5813.958     25.7   0.70   0.235
5814.930  5814.802     51.7   1.48   0.830
5815.337  5815.209     30.9   0.91   0.366
5815.748  5815.620      9.4   0.73   0.198
5816.206  5816.078     40.6   4.07   1.608
5816.464  5816.336    120.4   4.38   1.832
5816.972  5816.844      6.9   0.61   0.117
5817.194  5817.066     33.7   0.36   0.262
5817.598  5817.470      7.0   0.60   0.173
5820.071  5819.943     12.0   1.78   0.528
5821.999  5821.871     19.5   0.70   0.089
5822.581  5822.453     17.2   1.03   0.239
5823.422  5823.294      5.5   0.86   0.254
5823.813  5823.685     28.2   0.84   0.277
5824.270  5824.142      5.6   1.09   0.392
5825.904  5825.776     17.4   1.02   0.352
5826.738  5826.610     13.6   0.83   0.147
5827.557  5827.428     12.5   0.82   0.148
5827.994  5827.866     43.7   1.79   0.553
5830.173  5830.045      8.5   0.56   0.105
5830.794  5830.666     12.7   0.60   0.099
5831.724  5831.596     51.0   1.30   0.323
5831.902  5831.774      7.3   1.20   0.368
5832.608  5832.479      7.0   1.09   0.348
5834.100  5833.971     58.7   1.92   0.891
5834.759  5834.631     20.3   0.94   0.382
5835.232  5835.104     40.4   2.30   0.482
5835.655  5835.526     39.7   5.11   1.876
5837.828  5837.699     28.0   1.07   0.305
5838.195  5838.067     23.4   2.46   1.249
5838.494  5838.365     51.5   1.85   0.701
5838.785  5838.656     21.7   0.73   0.210
5839.661  5839.533      8.3   0.78   0.257
5839.876  5839.747      9.2   0.66   0.240
5841.333  5841.205      9.7   1.48   0.447
5842.494  5842.365      6.2   1.06   0.328
5843.326  5843.197     12.5   1.18   0.372
5844.724  5844.595     25.4   0.84   0.384
5845.045  5844.916     13.0   0.61   0.173
5845.413  5845.284     16.0   0.84   0.257
5846.117  5845.988     13.2   1.57   0.701
5846.346  5846.218     18.7   1.38   0.540
5847.124  5846.995     83.9   1.34   0.708
5848.228  5848.099     80.1   1.10   0.429
5849.082  5848.953      8.5   0.55   0.244
5849.304  5849.175      9.2   0.43   0.132
5849.806  5849.677     29.3   1.05   0.326
5850.194  5850.066      6.6   0.40   0.100
5850.444  5850.315      6.7   0.29   0.116
5850.892  5850.763      5.3   0.99   0.298
5851.328  5851.199     10.5   0.44   0.121
5852.355  5852.226     79.3   3.02   0.886
5852.728  5852.599      5.9   1.38   0.185
5853.276  5853.148     56.3   1.57   0.760  5853.149   26.0   11976   29056   -5.170  1.000 99  KFE
5853.803  5853.674    118.4   5.23   1.497
5854.454  5854.325      6.3   0.64   0.218
5855.205  5855.076     47.8   0.90   0.399  5855.091   26.0   37163   54237   -1.540  1.000 99  KFE
5856.211  5856.082     67.5   1.96   0.816  5856.083   26.0   34637   51708   -1.550  1.000 99  KFE
5857.323  5857.194     18.3   3.22   1.114
5857.577  5857.448    160.1   4.05   1.906
5857.869  5857.741     81.9   2.40   0.676
5858.391  5858.263     26.9   1.32   0.302
5858.904  5858.775     38.2   0.65   0.234
5859.400  5859.271     17.8   2.29   0.961
5859.713  5859.584    101.0   3.17   1.130  5859.578   26.0   36686   53748   -0.388  1.000 99  KFE
5860.208  5860.079      8.7   1.93   0.579
5861.232  5861.103     25.4   0.65   0.265  5861.107   26.0   34547   51604   -2.400  1.000 99  KFE
5862.487  5862.358    110.8   2.93   1.635  5862.353   26.0   36686   53739   -0.148  1.000 99  KFE
5862.969  5862.840      5.6   0.99   0.328
5863.569  5863.440      9.6   0.59   0.215
5864.053  5863.924     18.7   3.02   0.943
5864.379  5864.250     23.7   1.72   0.439
5866.350  5866.221     13.7   2.25   0.602
5866.578  5866.449    127.1   3.46   2.213
5867.178  5867.049      8.0   0.89   0.273
5867.688  5867.559     58.5   1.74   0.935
5867.934  5867.805      5.9   0.76   0.235
5868.287  5868.157      6.0   0.55   0.243
5869.198  5869.069     10.4   1.01   0.281
5869.787  5869.658     12.6   0.45   0.118
5870.791  5870.662      5.2   0.72   0.241
5871.435  5871.306     14.8   1.00   0.226
5871.907  5871.778      5.5   0.52   0.195
5873.157  5873.028     12.3   2.06   0.599
5873.325  5873.196     50.2   2.19   0.379
5873.583  5873.454      6.4   0.64   0.281
5873.888  5873.759     15.4   0.53   0.077
5874.091  5873.962      6.3   0.52   0.135
5875.265  5875.136      7.3   0.50   0.121
5876.399  5876.269     18.1   1.48   0.329
5876.650  5876.520     12.9   0.72   0.220
5877.906  5877.777     51.7   1.86   0.767
5878.178  5878.049     10.8   0.91   0.337
5879.618  5879.489     31.2   0.90   0.343
5879.910  5879.781     23.4   0.86   0.282
5880.153  5880.024     32.6   0.63   0.257
5880.403  5880.274     59.4   1.30   0.667
5880.791  5880.662     15.8   1.19   0.542
5881.395  5881.266     41.4   2.22   0.503  5881.279   26.0   37163   54161   -1.770  1.000 99  KFE
5881.870  5881.741     19.7   1.46   0.323
5882.904  5882.775      8.4   1.01   0.350
5883.132  5883.003      5.8   0.67   0.295
5883.947  5883.818     99.3   2.93   1.447
5884.580  5884.451     19.8   0.97   0.521
5884.871  5884.741     10.6   1.15   0.269
5885.167  5885.038     18.6   1.06   0.386
5885.518  5885.389      6.6   0.79   0.184
5886.506  5886.376     11.0   1.19   0.325
5887.593  5887.464     16.6   0.67   0.227
5888.064  5887.934     13.9   3.89   1.006
5888.458  5888.329     28.1   4.96   1.588
5888.684  5888.554     27.9   5.48   1.315
5889.133  5889.004    134.3  17.55   4.308
5889.630  5889.501    248.2  15.23   4.905
5889.983  5889.854    422.0   3.94   3.467
5890.212  5890.083    422.2   1.49   5.972
5890.615  5890.485    116.0  13.64   3.691
5890.848  5890.718     50.9   9.49   2.606
5891.294  5891.165     68.1   7.13   1.648
5891.523  5891.394     21.3   4.56   1.572
5891.960  5891.830     25.5   3.52   1.076
5892.588  5892.459     25.7   8.07   1.533
5892.958  5892.828    177.3  11.12   3.987
5893.339  5893.209     18.3   4.00   0.950
5893.790  5893.660     10.8   2.24   0.529
5894.254  5894.124     13.2   2.46   0.670
5894.693  5894.563      9.0   1.99   0.309
5895.109  5894.979    102.2  12.32   4.712
5895.543  5895.413    101.4  12.36   2.796
5895.925  5895.796    414.9   3.00   4.409
5896.146  5896.016    337.7   9.34   4.526
5896.467  5896.338     82.0  12.61   3.185
5896.662  5896.533     48.3  11.84   2.327
5897.330  5897.200     34.6   4.50   1.018
5897.665  5897.535     15.4   2.94   0.575
5898.335  5898.205     36.4   0.98   0.300
5898.884  5898.754     19.1   2.24   0.599
5899.428  5899.299    112.7   4.03   1.929
5899.647  5899.517     32.6   2.13   0.527
5900.310  5900.180     11.5   1.37   0.539
5901.023  5900.894      7.3   0.60   0.262
5901.659  5901.530     24.9   0.57   0.246
5901.893  5901.763      5.8   0.41   0.155
5902.324  5902.194     12.9   0.62   0.174
5902.605  5902.475     32.8   0.78   0.320
5903.449  5903.319     49.8   1.88   0.953
5904.063  5903.933      7.8   0.63   0.141
5904.996  5904.866     17.2   1.84   0.697
5905.424  5905.294      6.3   0.78   0.300
5905.804  5905.674     82.5   1.69   1.065  5905.689   26.0   37521   54449   -0.388  1.000 99  KFE
5906.642  5906.512     16.4   0.59   0.241
5906.970  5906.840     36.2   0.90   0.277
5907.986  5907.856     33.6   1.85   0.682
5909.009  5908.879     10.2   1.06   0.401
5910.108  5909.978     84.8   2.36   0.681
5911.647  5911.517      6.2   0.67   0.116
5912.226  5912.096     18.5   0.49   0.126
5912.786  5912.656      6.2   0.52   0.112
5913.330  5913.200      6.0   0.65   0.250
5913.856  5913.725     14.4   0.80   0.142
5914.292  5914.162    161.5   4.91   1.208
5915.679  5915.549     49.0   0.84   0.209
5916.097  5915.967     22.0   1.61   0.541
5916.385  5916.255    114.2   3.90   1.855  5916.249   26.0   19788   36686   -2.857  1.000 99  KFE
5916.888  5916.758     21.7   1.34   0.252
5917.296  5917.166      5.2   0.99   0.224
5917.881  5917.751     13.2   1.23   0.526
5918.664  5918.534     79.9   3.25   1.291
5919.054  5918.924      7.6   1.08   0.280
5920.599  5920.468     10.5   0.83   0.268
5921.365  5921.234      6.4   1.05   0.288
5922.245  5922.115     94.2   2.97   1.839
5922.501  5922.370     19.1   2.11   0.384
5923.129  5922.999     12.1   0.52   0.200
5923.874  5923.744      9.1   0.46   0.088
5924.058  5923.928     17.8   0.47   0.224
5924.405  5924.274      9.9   0.64   0.129
5924.747  5924.616      5.5   1.20   0.372
5925.045  5924.915      5.0   0.95   0.302
5925.945  5925.815      9.1   0.56   0.121
5927.265  5927.135      8.9   1.09   0.511
5927.922  5927.791     69.7   1.12   0.755  5927.786   26.0   37521   54386   -1.020  1.000 99  KFE
5928.883  5928.752     10.2   2.30   0.399
5929.020  5928.890     14.7   2.31   0.533
5929.808  5929.677     71.1   1.16   0.684  5929.667   26.0   36686   53546   -1.170  1.000 99  KFE
5930.320  5930.190    113.3   2.97   1.318  5930.173   26.0   37521   54379   -0.010  1.000 99  KFE
5930.934  5930.803     12.5   0.79   0.254
5932.077  5931.947      9.1   0.65   0.287
5932.329  5932.199      5.5   0.47   0.147
5933.933  5933.803     19.7   1.12   0.288
5934.547  5934.416     10.0   2.06   0.468
5934.792  5934.661    112.3   2.98   1.394  5934.653   26.0   31686   48532   -1.060  1.000 99  KFE
5935.515  5935.385     34.8   4.09   1.039
5936.361  5936.230      5.5   0.84   0.337
5937.131  5937.001      8.2   0.45   0.132
5937.570  5937.440      8.0   0.64   0.162
5937.942  5937.811     60.4   1.72   0.846
5938.369  5938.238      5.5   0.65   0.142
5939.961  5939.830     11.4   0.53   0.266
5940.515  5940.384     12.3   0.90   0.252
5940.780  5940.649     24.5   0.89   0.303
5941.128  5940.997     49.5   1.32   0.517
5941.436  5941.306      7.8   1.69   0.313
5941.884  5941.753     85.1   4.19   1.638
5942.824  5942.693     10.0   1.40   0.334
5943.186  5943.055     11.2   1.71   0.478
5943.476  5943.345     15.5   1.03   0.306
5943.713  5943.582     56.5   1.20   0.522
5944.814  5944.683     24.0   0.99   0.151
5945.738  5945.607      5.5   1.17   0.236
5945.896  5945.765      8.1   1.17   0.365
5946.631  5946.501      9.2   0.82   0.198
5947.636  5947.505     25.3   0.51   0.212
5948.673  5948.542     99.9   2.00   1.038
5948.879  5948.748      7.3   1.69   0.304
5949.446  5949.315    105.2   2.15   1.253
5951.549  5951.418      7.8   0.98   0.377
5952.857  5952.726     95.4   4.90   1.298
5953.285  5953.154    100.7   4.37   1.266
5954.844  5954.713      5.2   0.44   0.136
5956.830  5956.699    133.2   4.85   3.004  5956.692   26.0    6928   23711   -4.500  1.000 99  KFE
5957.147  5957.016      5.5   1.01   0.234
5957.485  5957.354      9.1   0.33   0.132
5957.998  5957.867      6.2   0.49   0.122
5958.310  5958.179     23.4   1.99   0.262
5958.447  5958.316     71.5   2.06   0.243
5959.815  5959.683     19.2   1.88   0.935
5960.024  5959.893     14.9   1.87   0.547
5960.482  5960.351      6.6   0.28   0.137
5962.060  5961.929      5.8   0.41   0.105
5963.367  5963.235     27.1   2.08   0.519
5965.564  5965.432     11.3   1.62   0.267
5965.967  5965.835     97.4   5.47   1.385
5966.698  5966.567     10.3   0.57   0.161
5967.155  5967.024     12.1   0.67   0.210
5967.898  5967.767      9.1   0.68   0.130
5969.002  5968.870      7.8   0.80   0.362
5969.324  5969.192      5.8   0.61   0.118
5969.693  5969.561     13.8   1.03   0.311
5971.888  5971.756      5.2   0.79   0.144
5973.111  5972.979      6.3   0.79   0.239
5974.001  5973.869      5.6   0.48   0.080
5975.484  5975.353     79.1   1.82   1.036
5975.911  5975.780      9.1   0.96   0.258
5976.600  5976.468     24.8   1.20   0.418
5976.915  5976.784    101.7   2.41   1.480
5977.966  5977.834      5.5   0.93   0.325
5978.206  5978.074     12.8   0.88   0.373
5978.681  5978.550     86.6   2.21   1.193
5979.037  5978.905     13.5   0.66   0.272
5980.936  5980.804     16.5   0.78   0.231
5982.034  5981.903      5.1   1.25   0.402
5982.425  5982.293     11.3   0.71   0.131
5983.020  5982.888     19.7   1.03   0.456
5983.822  5983.690     98.2   3.94   1.389  5983.673   26.0   36686   53394   -0.558  1.000 99  KFE
5984.186  5984.054     25.5   4.94   1.460
5984.952  5984.821    111.2   7.80   1.487
5985.305  5985.174     11.0   1.64   0.369
5986.239  5986.107      5.2   0.78   0.251
5987.202  5987.070     98.7   3.26   0.763
5988.702  5988.570     27.7   3.79   0.848
5989.183  5989.051      7.1   1.01   0.163
5989.453  5989.321      6.1   0.54   0.189
5991.500  5991.369     48.4   1.13   0.238  5991.376   26.1   25429   42115   -3.590  1.000 99  KFE
5992.011  5991.880     88.1   9.49   3.723
5993.609  5993.477      6.4   0.51   0.143
5995.814  5995.683      6.0   0.80   0.297
5996.124  5995.992     24.9   1.15   0.513
5996.864  5996.732     45.2   1.28   0.279
5997.737  5997.605     45.4   5.28   0.763
5997.923  5997.792     88.0   5.69   0.939
5998.408  5998.277      7.4   0.69   0.122
5998.633  5998.501      5.3   0.28   0.107
5999.099  5998.967     22.7   1.34   0.640
5999.348  5999.216     19.1   0.97   0.307
5999.801  5999.669     38.0   1.81   0.716
6000.814  6000.682     20.3   0.95   0.217
6001.109  6000.977      5.6   0.89   0.415
6002.452  6002.320     10.1   0.97   0.292
6002.779  6002.647     33.9   1.35   0.467
6003.154  6003.022    115.4   3.59   2.057  6003.010   26.0   31307   47961   -0.970  1.000 99  KFE
6005.176  6005.044     10.9   0.23   0.114
6005.677  6005.545     79.3   2.19   0.922
6006.474  6006.341     12.8   0.65   0.156
6006.972  6006.840      9.6   0.36   0.117
6007.451  6007.319     80.1   2.19   1.268
6007.849  6007.717     18.4   0.78   0.198
6008.106  6007.974     89.1   3.05   1.113  6007.960   26.0   37521   54161   -0.620  1.000 99  KFE
6008.703  6008.570    120.3   4.15   1.732  6008.554   26.0   31323   47961   -0.830  1.000 99  KFE
6009.400  6009.267      6.6   1.62   0.510
6009.961  6009.829      6.3   0.59   0.215
6011.716  6011.584      5.6   0.78   0.266
6012.362  6012.230     78.9   3.41   1.172
6012.905  6012.773     15.1   0.51   0.229
6013.392  6013.260      8.8   1.37   0.353
6013.631  6013.499    145.6   3.05   1.484
6014.059  6013.926      6.6   0.53   0.086
6014.533  6014.400      6.5   0.99   0.117
6014.687  6014.554      7.3   0.99   0.199
6015.385  6015.253     34.6   0.83   0.255
6015.940  6015.808      9.1   0.61   0.189
6016.779  6016.647    147.7   3.80   1.677
6017.088  6016.955      8.1   1.80   0.430
6018.469  6018.337     32.3   1.61   0.793
6018.762  6018.630     12.7   1.11   0.317
6019.503  6019.370     26.5   0.34   0.108
6020.098  6019.966     41.1  23.58   2.231
6020.250  6020.118    137.7  41.36   2.783
6020.368  6020.236     49.6  23.84   1.925
6021.935  6021.803    145.5   3.90   1.753
6022.330  6022.198      5.8   1.59   0.333
6022.629  6022.496      8.1   0.60   0.115
6023.776  6023.643      9.2   2.07   0.300
6023.985  6023.853     11.2   2.08   0.624
6024.204  6024.071    128.1   3.91   2.012  6024.049   26.0   36686   53282    0.200  1.000 99  KFE
6025.544  6025.411      5.1   0.64   0.166
6025.886  6025.753     14.5   0.75   0.236
6026.276  6026.143      7.1   0.56   0.248
6026.506  6026.373      9.7   0.47   0.217
6026.853  6026.720      5.1   0.91   0.370
6027.198  6027.066    101.1   2.76   1.296  6027.050   26.0   32874   49461   -1.020  1.000 99  KFE
6027.504  6027.371      6.1   1.47   0.486
6027.849  6027.717      8.0   0.52   0.183
6028.113  6027.980      5.5   0.37   0.139
6028.380  6028.248     14.0   0.48   0.191
6028.834  6028.702      7.3   0.49   0.175
6029.070  6028.937      6.9   0.30   0.134
6030.023  6029.890     24.0   0.82   0.131
6030.150  6030.017      9.9   0.81   0.122
6030.780  6030.648     14.3   0.33   0.089
6031.182  6031.049     15.1   0.97   0.257
6031.807  6031.675     18.7   1.92   0.454
6034.178  6034.045     28.2   1.26   0.284
6034.635  6034.502      7.1   0.49   0.151
6035.485  6035.352     19.5   0.48   0.215
6036.599  6036.466     17.2   0.41   0.190
6037.543  6037.410      8.3   0.45   0.171
6037.817  6037.684      7.5   0.21   0.077
6039.453  6039.320      6.1   0.61   0.126
6039.868  6039.735     75.2   2.30   0.775
6041.229  6041.096     11.6   0.76   0.335
6041.657  6041.524      5.1   0.77   0.197
6042.242  6042.109     85.1   3.06   0.811
6043.506  6043.373     13.3   0.92   0.189
6044.627  6044.494      7.2   1.28   0.273
6046.091  6045.958     19.0   2.49   0.672
6047.820  6047.687      5.7   0.42   0.152
6048.757  6048.624      9.2   1.89   0.716
6048.990  6048.857      7.8   1.21   0.424
6049.259  6049.126      8.4   1.31   0.522
6050.342  6050.209      5.2   0.42   0.093
6051.960  6051.827      8.2   0.87   0.147
6052.752  6052.619     13.6   1.07   0.429
6053.099  6052.966      8.9   0.80   0.196
6053.816  6053.683     47.0   2.72   0.648
6054.216  6054.083     29.3   0.71   0.193
6055.224  6055.090      9.6   0.86   0.214
6055.535  6055.402      7.1   0.36   0.143
6056.150  6056.017     96.0   1.96   1.071  6055.992   26.0   38175   54683   -0.340  1.000 99  KFE
6056.480  6056.347     10.7   0.73   0.206
6056.710  6056.577      9.1   0.43   0.128
6056.980  6056.847     10.9   0.43   0.153
6057.236  6057.103      7.8   1.05   0.268
6057.400  6057.266     19.4   1.07   0.319
6058.292  6058.159     38.2   0.99   0.467
6058.839  6058.706      6.2   0.49   0.194
6059.879  6059.746      7.5   0.31   0.067
6060.397  6060.263      5.5   0.49   0.118
6060.788  6060.654     18.6   2.18   0.667
6061.765  6061.632      9.9   0.75   0.330
6062.989  6062.856     86.0   6.51   1.512
6064.089  6063.955      5.3   0.62   0.295
6064.778  6064.644     65.3   2.36   1.153
6065.424  6065.291      8.3   3.54   0.753
6065.636  6065.503    173.1   4.63   2.113  6065.482   26.0   21039   37521   -1.400  1.000 99  KFE
6065.919  6065.785     16.0   3.13   1.019
6068.096  6067.963      6.4   0.60   0.190
6070.179  6070.045      7.0   0.44   0.165
6071.879  6071.746      5.1   0.76   0.189
6073.306  6073.172      6.9   0.60   0.127
6077.043  6076.909     24.4   0.52   0.208
6078.639  6078.505     99.8   2.33   1.040
6079.158  6079.024     75.9   2.47   1.013  6078.999   26.0   37521   53967   -0.960  1.000 99  KFE
6079.835  6079.701      5.7   0.16   0.050
6080.139  6080.006      5.0   0.22   0.058
6081.352  6081.218     10.0   1.79   0.470
6081.590  6081.457     84.6   2.27   1.246
6081.898  6081.764     13.0   1.46   0.551
6082.564  6082.430     41.8   3.15   1.315
6082.855  6082.721     95.8   3.11   1.764  6082.708   26.0   17927   34363   -3.550  1.000 99  KFE
6083.845  6083.711     12.6   1.09   0.374
6084.256  6084.122     35.4   1.05   0.365  6084.111   26.1   25805   42237   -3.800  1.000 99  KFE
6085.390  6085.256    112.3   3.17   2.118
6086.426  6086.293     69.0   1.20   0.734
6086.836  6086.703     18.6   1.32   0.512
6087.153  6087.019      9.0   1.36   0.473
6087.950  6087.816     26.0   1.77   0.316
6088.087  6087.953     13.9   1.75   0.282
6089.714  6089.580     73.5   1.72   1.112
6090.356  6090.222    107.8   2.94   1.677
6091.327  6091.193     64.0   1.79   0.844
6092.037  6091.903     43.2   3.98   1.042
6092.940  6092.806     31.7   1.15   0.654
6093.292  6093.158     68.8   1.16   0.453
6093.791  6093.657     58.0   1.66   0.916  6093.666   26.0   37163   53569   -1.340  1.000 99  KFE
6094.517  6094.383     44.4   0.98   0.503  6094.364   26.0   37521   53925   -1.610  1.000 99  KFE
6096.235  6096.101      5.5   0.52   0.202
6096.812  6096.678     75.8   1.63   1.080  6096.662   26.0   32134   48532   -1.810  1.000 99  KFE
6097.253  6097.119     27.6   3.66   1.119
6097.789  6097.655      6.8   1.92   0.527
6098.402  6098.268     43.7   2.01   0.481  6098.280   26.0   36767   53160   -1.800  1.000 99  KFE
6098.796  6098.662     29.6   1.74   0.384
6099.648  6099.514      6.9   0.27   0.098
6100.426  6100.292     26.4   0.56   0.204
6102.330  6102.196    105.6   5.08   1.272
6102.868  6102.734    173.4   8.83   2.244
6103.314  6103.180     61.9  22.44   1.025
6103.404  6103.270     98.3  21.86   1.025
6104.789  6104.655     11.3   0.80   0.277
6105.285  6105.151     33.6   1.70   0.611
6105.629  6105.495      7.4   1.42   0.388
6105.904  6105.769      5.6   0.40   0.141
6106.138  6106.004      5.1   0.67   0.123
6106.705  6106.570     20.9   2.98   0.987
6107.149  6107.015     12.6   1.56   0.517
6107.444  6107.309      7.9   1.00   0.339
6108.044  6107.910      6.6   2.36   0.568
6108.263  6108.128    128.2   2.92   1.810
6108.581  6108.446      6.9   1.11   0.339
6111.219  6111.085     64.1   1.18   0.782
6111.800  6111.665     89.7   1.12   0.557
6113.076  6112.941     21.1   3.34   0.836
6113.469  6113.335     23.7   2.01   0.337
6114.555  6114.421      6.9   0.52   0.190
6114.940  6114.805      5.3   0.99   0.332
6115.849  6115.714      6.5   0.52   0.147
6116.357  6116.222    109.2   4.66   1.135
6117.145  6117.010     48.5   1.65   0.587
6118.258  6118.123     11.4   0.48   0.106
6119.690  6119.555     97.9   6.22   1.665
6120.399  6120.264     55.9   1.10   0.764  6120.244   26.0    7377   23711   -5.930  1.000 99  KFE
6121.148  6121.013     32.8   1.08   0.322
6122.145  6122.010     28.2   3.57   1.131
6122.374  6122.239    208.3   6.48   2.448
6122.733  6122.599     32.9   5.61   1.748
6123.339  6123.204      7.7   1.10   0.364
6123.614  6123.479      8.3   1.06   0.302
6125.158  6125.024     46.7   2.25   0.666
6126.368  6126.233     96.7   3.03   1.779
6127.606  6127.471     33.4   0.68   0.410
6128.059  6127.925     86.5   2.81   1.117  6127.909   26.0   33413   49727   -1.349  1.000 99  KFE
6128.406  6128.271     14.7   2.50   0.935
6129.131  6128.996     85.4   2.59   0.905
6129.697  6129.562     21.9   3.27   1.055
6130.289  6130.155     44.1   1.60   0.477
6131.722  6131.588     35.9   0.52   0.243
6131.994  6131.859     34.6   0.67   0.210
6134.115  6133.980     15.0   0.85   0.191
6134.711  6134.576     27.4   1.17   0.536
6135.245  6135.110      9.3   0.76   0.123
6135.518  6135.383     77.4   1.99   1.012
6135.919  6135.784     34.3   1.18   0.422
6136.777  6136.642    194.6   6.80   2.072
6137.146  6137.011    132.5   7.23   1.785
6137.624  6137.489     44.8   7.58   1.861
6137.843  6137.708    190.8  10.05   1.971
6138.053  6137.918     15.3   7.40   0.837
6138.651  6138.516     37.9   2.07   0.887
6139.786  6139.651     10.8   0.42   0.096
6141.665  6141.530      9.6   3.37   0.810
6141.876  6141.741    166.9   4.36   1.834
6142.118  6141.983     11.7   2.32   0.765
6142.636  6142.501     40.8   0.73   0.251
6143.355  6143.219     31.7   0.63   0.170
6145.165  6145.030     45.5   0.76   0.264
6145.564  6145.429     15.5   1.30   0.423
6146.373  6146.238     23.7   1.31   0.347
6146.556  6146.420      5.7   1.27   0.270
6147.952  6147.817    103.7   3.27   1.316
6148.836  6148.701     14.1   0.95   0.541
6149.398  6149.262     44.0   0.79   0.211  6149.258   26.1   31368   47626   -2.750  1.000 99  KFE
6149.870  6149.734     13.1   0.88   0.363
6150.305  6150.170     95.6   1.52   0.903
6151.773  6151.638    108.5   3.62   2.238  6151.617   26.0   17550   33802   -3.230  1.000 99  KFE
6154.378  6154.243     83.3   1.65   0.880
6154.593  6154.457      7.7   1.44   0.271
6155.301  6155.165     88.6   2.65   0.913
6155.845  6155.709     10.1   1.37   0.314
6156.169  6156.033     34.5   1.20   0.476
6156.461  6156.326     13.7   1.41   0.338
6156.907  6156.772      5.7   1.55   0.356
6157.559  6157.423     14.5   2.20   0.619
6157.886  6157.750    103.6   3.52   1.086  6157.725   26.0   32874   49109   -1.120  1.000 99  KFE
6159.521  6159.386     34.4   0.86   0.207  6159.368   26.0   37163   53394   -1.890  1.000 99  KFE
6160.390  6160.254     10.8   1.47   0.446
6160.903  6160.768    107.0   2.84   1.285
6161.437  6161.302    113.3   5.02   1.408
6162.100  6161.964     31.4   4.61   1.381
6162.329  6162.194    225.9   5.15   2.228
6162.555  6162.420     33.3   4.48   1.415
6163.646  6163.510    139.5   5.00   1.930
6163.890  6163.755    120.4   3.70   1.380
6165.514  6165.379     78.3   1.54   0.798  6165.361   26.0   33413   49628   -1.430  1.000 99  KFE
6166.038  6165.902      9.2   0.74   0.365
6166.592  6166.456    110.2   3.07   1.774
6167.975  6167.840      6.8   0.74   0.237
6169.196  6169.060    131.6   4.58   1.588
6169.714  6169.578    146.1   5.03   1.938
6170.127  6169.991      9.8   1.66   0.249
6170.631  6170.496    148.2  12.66   4.168
6171.145  6171.010     12.3   2.29   0.667
6172.859  6172.724      6.9   0.62   0.124
6173.494  6173.358    128.3   4.05   1.700  6173.341   26.0   17927   34122   -2.800  1.000 99  KFE
6175.241  6175.105      5.3   0.69   0.192
6175.519  6175.384     73.5   1.09   0.651
6176.966  6176.830     93.6   1.28   0.582
6177.402  6177.266     64.0   1.11   0.620
6177.682  6177.546      7.7   0.51   0.151
6178.364  6178.228      6.0   0.42   0.129
6180.122  6179.986     16.5   2.27   0.646
6180.365  6180.229    109.8   3.19   1.249
6183.224  6183.088      8.6   0.50   0.113
6183.733  6183.597     30.6   2.52   0.754
6184.022  6183.886     18.5   1.39   0.454
6185.843  6185.707     27.3   0.79   0.277
6186.339  6186.202     39.2   1.44   0.597
6186.873  6186.737     58.6   1.39   0.546
6187.545  6187.409     25.3   1.54   0.329  6187.398   26.0   22838   38996   -4.190  1.000 99  KFE
6188.144  6188.007     84.6   1.99   1.083  6187.987   26.0   31805   47961   -1.660  1.000 99  KFE
6189.152  6189.016     75.7   1.37   0.582
6189.513  6189.377     20.2   0.76   0.116
6190.583  6190.447      6.4   0.66   0.240
6191.342  6191.205    142.5   6.14   1.871
6191.729  6191.593    203.4   8.88   2.353
6192.237  6192.101     10.4   2.85   0.703
6192.707  6192.570      7.4   0.76   0.107
6193.839  6193.703      9.0   0.70   0.231
6194.560  6194.424     27.1   0.93   0.328
6195.597  6195.461     31.2   0.97   0.291
6199.355  6199.219    113.8   2.28   1.187
6199.652  6199.515     31.1   1.37   0.394
6200.476  6200.340    128.7   3.62   2.011  6200.321   26.0   21039   37163   -2.300  1.000 99  KFEm
6201.311  6201.174     10.3   1.36   0.300
6201.901  6201.765      6.0   0.81   0.178
6202.865  6202.728      6.1   0.61   0.269
6203.490  6203.354      6.4   0.51   0.240
6204.759  6204.623     51.0   0.83   0.389
6205.354  6205.217     16.4   1.39   0.420
6206.956  6206.820      6.6   0.79   0.213
6207.446  6207.309      8.8   1.13   0.311
6208.403  6208.266      6.8   0.27   0.134
6208.703  6208.566      9.1   0.73   0.163
6209.889  6209.752      8.0   0.76   0.225
6210.821  6210.685     60.0   0.54   0.163
6212.240  6212.104     21.1   3.16   1.267
6213.595  6213.458    143.4   3.77   2.182  6213.437   26.0   17927   34017   -2.450  1.000 99  KFE
6214.029  6213.892     74.4   3.01   0.870
6214.755  6214.618     20.0   1.81   0.550
6215.315  6215.178    124.0   4.24   1.239
6215.532  6215.395     27.2   3.58   1.052
6215.991  6215.855     16.2   1.41   0.500
6216.522  6216.385    127.3   3.37   1.391
6217.031  6216.895      7.1   1.32   0.255
6217.889  6217.752     10.8   2.38   0.738
6218.324  6218.187      9.9   1.61   0.443
6219.442  6219.305    154.0   5.35   2.164  6219.287   26.0   17727   33802   -2.340  1.000 99  KFE
6220.087  6219.950     25.5   0.50   0.156
6220.367  6220.231     22.7   0.73   0.297
6220.637  6220.500     43.2   0.86   0.419
6220.944  6220.807     55.3   1.81   0.514  6220.791   26.0   31307   47378   -2.370  1.000 99  KFEm
6221.480  6221.343     64.6   1.47   0.415
6221.837  6221.700     30.2   0.82   0.344
6222.991  6222.855      6.6   0.93   0.243
6223.203  6223.066      9.6   0.94   0.228
6224.143  6224.006     55.6   1.63   0.525
6224.666  6224.529     75.8   3.14   1.498
6225.259  6225.122     10.2   1.90   0.768
6225.643  6225.506      8.8   1.35   0.368
6226.501  6226.364     13.2   1.00   0.417
6226.893  6226.756     64.3   1.69   0.913  6226.740   26.0   31323   47378   -2.110  1.000 99  KFEm
6227.708  6227.571     29.5   0.84   0.489
6228.074  6227.937      5.0   0.43   0.207
6228.520  6228.383     11.4   1.01   0.458
6229.395  6229.258     94.3   2.40   1.016
6230.242  6230.105     52.3   3.94   0.713
6230.908  6230.771    236.1   7.73   2.024
6231.160  6231.023     65.3   3.51   1.478
6231.456  6231.319     13.1   1.96   0.736
6231.738  6231.600      6.3   0.99   0.228
6232.799  6232.662    126.3   4.09   1.422  6232.639   26.0   29469   45509   -1.180  1.000 99  KFEm
6233.352  6233.215     69.4   1.84   0.524
6233.729  6233.592     13.1   1.72   0.598
6234.158  6234.021      6.5   0.88   0.242
6235.674  6235.537      7.6   0.39   0.126
6236.209  6236.072      7.4   0.53   0.150
6237.471  6237.334     68.4   1.89   0.418
6237.657  6237.520     14.4   1.73   0.244
6238.534  6238.397     54.7   2.64   0.871
6238.744  6238.607     14.7   2.47   0.891
6239.536  6239.398     25.3   0.67   0.226
6239.972  6239.835     42.8   5.45   1.560
6240.383  6240.246     72.2  11.20   3.919
6240.806  6240.669    108.8   4.56   1.539  6240.653   26.0   17927   33947   -3.230  1.000 99  KFE
6241.780  6241.642      8.9   0.85   0.173
6242.236  6242.099      7.6   0.32   0.080
6242.472  6242.335      5.5   0.40   0.103
6242.989  6242.852     96.3   2.97   1.072
6243.276  6243.139    134.4   5.00   1.975
6243.688  6243.551     12.5   2.50   0.653
6243.978  6243.840     57.5   1.36   0.540
6244.234  6244.097     19.1   1.54   0.524
6244.631  6244.494     59.5   1.66   0.516
6245.400  6245.263     11.8   0.90   0.259
6245.781  6245.644     80.6   1.32   0.543
6246.080  6245.943     10.4   1.77   0.365
6246.485  6246.348    145.8   5.04   1.648  6246.327   26.0   29056   45061   -0.778  1.000 99  KFEm
6247.478  6247.341      6.6   0.56   0.141
6247.720  6247.582     58.1   0.64   0.330  6247.562   26.1   31388   47390   -2.350  1.000 99  KFEm
6248.027  6247.890      5.5   0.51   0.149
6249.224  6249.087      8.5   1.36   0.325
6249.717  6249.579     63.3   6.04   2.510
6250.137  6249.999      6.0   0.80   0.101
6250.599  6250.461     12.9   1.62   0.626
6251.441  6251.304     10.2   1.15   0.270
6251.988  6251.850    112.0   2.05   1.321
6252.521  6252.383      9.9   4.86   0.762
6252.728  6252.590    179.9   6.25   2.077  6252.565   26.0   19390   35379   -1.640  1.000 99  KFEm
6253.681  6253.544     11.9   0.47   0.202
6254.002  6253.864     46.4   2.45   0.554
6254.412  6254.275    167.4   5.41   1.672
6254.969  6254.831     13.8   1.26   0.472
6255.192  6255.055     15.0   1.26   0.469
6256.114  6255.976     55.9   1.82   0.502
6256.519  6256.382    161.2   4.70   1.886
6257.062  6256.924     64.6   1.55   0.533
6257.750  6257.612     14.8   0.81   0.206
6257.937  6257.800     19.5   0.82   0.212
6258.271  6258.134    119.9   4.54   2.090
6258.828  6258.690    181.5   8.10   2.884
6259.097  6258.960     39.2   2.32   1.328
6259.745  6259.607     50.9   2.26   0.794
6260.059  6259.921     11.0   2.08   0.708
6261.283  6261.145    135.6   6.53   1.270
6261.440  6261.303     21.5   6.02   1.029
6262.351  6262.213     24.8   1.72   0.522
6262.547  6262.409     17.0   1.70   0.490
6265.035  6264.898     15.5   3.36   1.190
6265.300  6265.162    155.2   4.66   1.830  6265.141   26.0   17550   33507   -2.460  1.000 99  KFE
6265.779  6265.641     14.0   0.88   0.216
6266.193  6266.055     12.0   0.94   0.228
6266.481  6266.344     55.2   1.09   0.568
6267.009  6266.871      8.4   1.10   0.282
6267.902  6267.764     21.1   1.57   0.735
6268.695  6268.557     19.5   0.38   0.100
6268.989  6268.851     66.8   0.54   0.252
6269.574  6269.436     11.2   0.43   0.115
6270.130  6269.992     11.0   1.53   0.270
6270.392  6270.254    103.9   2.43   1.526  6270.231   26.0   23052   38996   -2.510  1.000 99  KFEm
6271.451  6271.313     66.0   2.82   0.878  6271.276   26.0   26875   42816   -2.763  1.000 99  KFE
6271.899  6271.761     27.8   1.82   0.463
6272.205  6272.067      6.7   0.66   0.178
6272.771  6272.633     12.4   0.71   0.236
6273.228  6273.090     10.7   1.10   0.423
6273.555  6273.417     10.0   0.88   0.302
6274.114  6273.976     14.6   0.71   0.270
6274.816  6274.678     82.5   1.96   1.226
6275.437  6275.299     30.0   2.43   1.243
6275.671  6275.533     24.3   4.46   1.223
6276.206  6276.068     44.3   4.89   2.399
6276.452  6276.314     31.6   3.50   1.047
6276.918  6276.779     65.3   3.01   1.846
6277.234  6277.096     14.5   1.28   0.267
6277.489  6277.351     30.1   2.28   0.548
6277.703  6277.565     33.2   2.34   1.294
6277.922  6277.784     36.8   2.30   1.343
6278.379  6278.241     26.3   1.06   0.283
6278.713  6278.575     28.9   2.41   1.389
6279.221  6279.082     33.6   2.54   1.679
6279.502  6279.364     21.4   1.17   0.254
6279.937  6279.799     86.8   1.91   0.834
6280.279  6280.141     10.1   0.79   0.223
6280.799  6280.661    164.2   6.41   3.172
6281.557  6281.419     30.5   0.81   0.639
6282.232  6282.094     15.6   1.64   0.468
6282.815  6282.677    124.1  13.11   3.204
6283.352  6283.214     12.9   0.89   0.351
6284.626  6284.488      9.1   0.36   0.106
6285.327  6285.188     90.3   2.43   1.592
6286.019  6285.881      9.0   0.67   0.262
6286.311  6286.172     36.9   0.96   0.351
6286.580  6286.442     14.4   1.13   0.563
6286.955  6286.817      6.7   0.57   0.171
6287.474  6287.335     10.9   0.33   0.115
6287.731  6287.592     10.2   0.22   0.087
6288.221  6288.083     17.1   1.61   0.990
6288.479  6288.341     15.8   1.08   0.270
6289.044  6288.906     25.8   2.70   1.428
6290.720  6290.582     29.7   2.26   0.392
6291.086  6290.948     79.6  24.75   2.291
6291.188  6291.050     64.5  24.93   1.547
6291.795  6291.656     33.1   2.35   1.308
6292.048  6291.910      7.5   0.92   0.273
6292.993  6292.854     94.8   2.63   1.403
6293.513  6293.374     15.5   0.86   0.386
6294.040  6293.902     54.3   1.95   0.948
6294.780  6294.641     32.2   3.45   1.907
6295.406  6295.267     10.9   1.19   0.277
6296.254  6296.116     13.8   1.73   0.632
6296.685  6296.546    105.0   6.92   2.844
6297.272  6297.133     33.6   2.23   1.523
6297.980  6297.841    156.3   4.53   1.467  6297.799   26.0   17927   33802   -2.660  1.000 99  KFE
6299.387  6299.249     14.0   2.75   0.356
6299.777  6299.638     46.5   2.32   0.672
6300.481  6300.342     26.2   1.79   0.283
6300.834  6300.695     44.4   2.83   1.610
6301.659  6301.520    154.2   3.77   1.163
6301.884  6301.745      9.0   2.96   0.713
6302.661  6302.523    116.3   2.59   1.370  6302.499   26.0   29733   45595   -1.083  1.000 99  KFE
6303.622  6303.483     17.0   0.86   0.142
6303.921  6303.782     58.6   1.19   0.752
6304.343  6304.205     11.3   1.26   0.474
6304.611  6304.472     20.1   1.98   0.753
6305.415  6305.276     30.2   3.03   0.952
6305.827  6305.688     82.0   4.12   1.184
6306.285  6306.147     13.3   2.09   0.832
6308.031  6307.893     19.6   0.78   0.189
6308.685  6308.546     15.1   1.39   0.652
6308.998  6308.859      7.7   0.79   0.178
6309.455  6309.316     12.3   1.72   0.780
6310.047  6309.908     41.8   0.63   0.253
6310.428  6310.289     26.2   0.34   0.095
6310.724  6310.585     12.1   0.93   0.420
6311.408  6311.269     18.0   0.82   0.193
6311.667  6311.528     77.1   1.41   1.038  6311.500   26.0   22838   38678   -3.150  1.000 99  KFE
6311.906  6311.767      8.6   0.94   0.195
6312.411  6312.272     56.5   1.87   1.024
6313.009  6312.870     20.7   4.27   0.643
6313.130  6312.992     15.5   4.26   0.615
6313.796  6313.657      9.0   1.18   0.622
6314.823  6314.685    127.2   2.50   1.534
6315.509  6315.370    119.9   2.81   0.935
6315.980  6315.841     78.6   1.59   0.707  6315.814   26.0   32874   48703   -1.650  1.000 99  KFEm
6316.752  6316.613     10.3   0.37   0.091
6317.385  6317.246      9.8   1.26   0.491
6317.675  6317.536     21.5   2.45   0.536
6318.192  6318.053    164.6   5.63   1.844
6318.448  6318.309     30.2   3.79   1.157
6318.881  6318.742     73.8   3.05   0.603
6319.407  6319.268     53.3   1.31   0.377
6319.660  6319.521     27.4   0.72   0.248
6320.028  6319.889     13.4   0.45   0.113
6320.575  6320.436     28.5   0.92   0.388
6321.004  6320.865     30.9   0.80   0.261
6321.473  6321.334      5.0   0.43   0.234
6322.328  6322.189     39.4   1.10   0.290
6322.859  6322.720    132.2   3.55   1.837  6322.694   26.0   20874   36686   -2.330  1.000 99  KFEm
6323.258  6323.119      5.3   1.21   0.372
6324.934  6324.795      8.2   0.35   0.123
6325.319  6325.180     33.6   0.89   0.265
6327.038  6326.899     20.9   1.68   0.748
6327.381  6327.242      5.9   1.05   0.166
6327.771  6327.632    106.6   2.73   1.309
6330.263  6330.124     95.1   3.29   1.741
6331.017  6330.878     57.9   0.90   0.605  6330.852   26.0   38175   53967   -1.170  1.000 99  KFEm
6332.144  6332.005     22.2   1.58   0.656
6332.386  6332.247     24.8   2.30   1.022
6334.531  6334.391      7.7   0.53   0.157
6334.907  6334.768     12.5   0.53   0.248
6335.506  6335.367    162.7   4.94   2.253  6335.337   26.0   17727   33507   -2.200  1.000 99  KFE
6335.926  6335.787      6.0   1.50   0.285
6336.275  6336.135     48.1   1.43   0.683
6336.794  6336.655      7.2   3.64   0.489
6337.002  6336.862    138.9   4.52   1.668  6336.830   26.0   29733   45509   -0.806  1.000 99  KFEm
6338.359  6338.220      5.1   0.44   0.081
6338.595  6338.455     10.0   0.26   0.158
6339.049  6338.910     68.1   1.44   0.714
6339.277  6339.138     76.5   1.46   0.684
6339.549  6339.409     15.1   0.79   0.275
6340.147  6340.008     18.1   0.38   0.135
6341.587  6341.448      7.7   1.57   0.300
6342.031  6341.891     22.5   3.37   0.875
6342.632  6342.493     14.0   2.33   0.704
6343.042  6342.902     14.9   3.48   0.913
6343.381  6343.241     18.2   4.11   0.979
6343.885  6343.745     18.8   3.76   1.073
6344.088  6343.949     24.3   3.80   0.976
6344.320  6344.181    126.9   4.02   1.317
6345.001  6344.862     10.1   1.69   0.559
6345.420  6345.281     10.5   0.33   0.078
6346.127  6345.988     19.2   0.60   0.122
6347.014  6346.875     11.4   0.64   0.355
6347.237  6347.097     29.2   0.70   0.308
6347.436  6347.297     11.9   0.99   0.165
6347.578  6347.438     11.5   1.06   0.157
6347.974  6347.835     15.9   0.57   0.159
6348.534  6348.394     13.1   1.18   0.321
6349.636  6349.496     18.7   1.83   0.543
6349.906  6349.766     18.1   1.59   0.708
6350.641  6350.501     26.4   1.47   0.674
6351.025  6350.886      6.5   1.02   0.280
6351.435  6351.296     10.7   0.73   0.236
6352.577  6352.437     10.2   0.93   0.259
6353.556  6353.417     10.5   2.47   0.431
6353.986  6353.846     28.1   3.00   0.755
6354.731  6354.591     16.4   0.66   0.176
6355.229  6355.090    140.1   7.53   1.076
6355.392  6355.252     28.1   6.96   1.112
6356.166  6356.027      8.8   0.94   0.200
6356.741  6356.601      7.3   0.47   0.129
6356.990  6356.850      5.8   0.51   0.149
6357.434  6357.294     16.6   1.11   0.432
6357.922  6357.782     10.3   1.74   0.725
6358.213  6358.073     16.7   1.51   0.423
6358.860  6358.720    171.1   5.44   2.018
6359.323  6359.183     11.9   0.96   0.292
6359.577  6359.437     11.9   1.84   0.396
6360.025  6359.885     27.4   4.87   1.326
6360.794  6360.654     18.7   3.20   0.582
6360.988  6360.848     51.1   3.37   0.623
6361.366  6361.226     36.8   6.52   1.715
6361.992  6361.852     29.9   7.70   1.773
6362.531  6362.391     47.5   8.47   1.872
6363.033  6362.893    102.3   5.54   1.089
6363.238  6363.098     20.0   4.82   0.633
6363.960  6363.820     18.4   1.81   0.483
6364.555  6364.415     71.5   4.19   1.496
6364.804  6364.663     53.6   5.44   2.145
6365.193  6365.053      6.2   1.99   0.389
6365.614  6365.473      5.9   0.96   0.420
6366.104  6365.964      7.2   0.99   0.403
6366.604  6366.464     93.3   8.82   3.563
6367.256  6367.116      6.4   0.89   0.304
6367.586  6367.446     14.5   0.78   0.302
6368.154  6368.014     11.2   0.60   0.183
6369.128  6368.988     11.1   1.20   0.339
6369.636  6369.496     31.1   0.52   0.266  6369.463   26.1   23318   39013   -4.180  1.000 99  KFEm
6370.092  6369.952      9.6   0.65   0.296
6370.528  6370.388     42.1   0.97   0.481
6370.736  6370.596     23.4   0.94   0.312
6371.272  6371.132      5.4   1.15   0.374
6371.539  6371.399     17.5   1.25   0.526
6371.783  6371.643     23.2   1.40   0.600
6372.984  6372.844      7.5   1.38   0.317
6374.008  6373.868      8.0   0.43   0.072
6374.594  6374.454     24.6   2.51   1.090
6375.405  6375.265      6.0   0.71   0.183
6375.713  6375.573     18.6   0.35   0.132
6375.982  6375.842     11.1   0.56   0.130
6376.342  6376.202      8.7   0.64   0.182
6377.733  6377.593     12.0   1.39   0.253
6378.432  6378.292     61.1   2.00   0.456
6379.079  6378.939     21.0   2.92   0.895
6379.455  6379.315      7.2   1.62   0.436
6379.796  6379.655     13.7   1.03   0.276
6380.927  6380.786     88.9   2.32   0.787  6380.750   26.0   33765   49433   -1.280  1.000 99  KFEm
6381.308  6381.168     12.4   2.05   0.470
6381.806  6381.666      7.9   1.22   0.254
6382.283  6382.143      7.7   0.58   0.156
6382.803  6382.663     10.8   1.32   0.284
6383.227  6383.087      6.6   1.31   0.263
6383.884  6383.743     14.9   0.75   0.242
6384.092  6383.952     15.9   0.75   0.181
6384.608  6384.468     19.2   0.94   0.128
6384.827  6384.687     52.9   0.99   0.414
6385.299  6385.158      9.3   0.73   0.221
6385.894  6385.754     26.6   1.33   0.459
6386.517  6386.376      6.1   0.93   0.243
6387.648  6387.508     10.9   1.30   0.649
6388.558  6388.417     22.7   2.78   0.765
6388.995  6388.854      5.2   0.32   0.108
6389.454  6389.313      9.7   0.62   0.139
6390.658  6390.518     27.0   1.78   0.495
6392.146  6392.006      8.7   0.80   0.231
6392.365  6392.224     25.6   0.83   0.143
6392.714  6392.573     69.7   1.72   0.977  6392.538   26.0   18378   34017   -3.956  1.000 99  KFE
6393.298  6393.157     20.4   2.75   0.676
6393.786  6393.645    195.2   8.36   2.064
6394.384  6394.243     13.1   1.79   0.563
6394.668  6394.528     10.4   0.69   0.224
6395.221  6395.080      5.9   0.76   0.127
6395.350  6395.210     12.6   0.76   0.129
6395.631  6395.490     11.8   0.36   0.115
6396.545  6396.404     25.5   0.53   0.096
6397.382  6397.242      7.9   0.63   0.182
6398.165  6398.024     21.8   0.93   0.292
6398.492  6398.352      5.8   1.05   0.269
6399.183  6399.042     10.1   1.13   0.565
6399.942  6399.801     26.5   3.58   1.268
6400.180  6400.039    175.5   4.09   1.335
6400.488  6400.347    152.8   4.35   2.094
6400.982  6400.841     16.6   0.82   0.247
6401.264  6401.123      8.9   0.66   0.207
6402.558  6402.417      9.8   0.86   0.298
6403.297  6403.156     27.3   0.85   0.342
6403.763  6403.622      9.7   0.72   0.338
6405.632  6405.491     26.4   0.78   0.317
6405.869  6405.728     17.5   1.27   0.320
6406.035  6405.894     13.2   1.26   0.303
6407.436  6407.295     41.3   3.29   0.869
6407.979  6407.838     16.9   3.37   0.470
6408.203  6408.062    132.1   4.09   1.484
6408.548  6408.407     40.3   4.68   1.728
6408.791  6408.650     16.2   2.66   0.991
6410.504  6410.363     20.2   2.15   0.776
6411.232  6411.091     20.0   4.24   1.362
6411.831  6411.690    153.4   5.13   1.552
6412.388  6412.247      9.0   0.75   0.233
6413.549  6413.408     13.1   0.76   0.112
6413.714  6413.573     21.0   0.77   0.149
6414.096  6413.955     17.6   0.60   0.252
6414.435  6414.294      6.8   0.40   0.171
6414.783  6414.642     39.5   2.65   0.899
6415.144  6415.003     50.4   2.53   0.736
6415.607  6415.466     18.8   0.94   0.357
6417.103  6416.962     50.4   1.61   0.507  6416.940   26.0   38678   54258   -0.995  1.000 99  KFEm
6417.933  6417.792     37.9   3.64   1.565
6419.096  6418.955     10.0   0.22   0.083
6419.242  6419.100     19.0   0.23   0.037
6419.519  6419.377      8.4   0.32   0.154
6419.823  6419.682     42.2   0.91   0.261
6420.135  6419.994    111.2   2.41   1.144
6420.903  6420.762     12.1   1.12   0.307
6421.555  6421.414    189.6   7.09   2.516
6422.296  6422.155      9.1   0.41   0.197
6424.613  6424.472      7.2   1.39   0.477
6425.015  6424.873     32.7   0.35   0.104
6425.604  6425.463     10.5   0.96   0.203
6425.789  6425.648     15.3   0.97   0.347
6426.455  6426.313     19.0   0.77   0.193
6428.581  6428.440      5.2   0.59   0.181
6428.844  6428.703      7.7   0.42   0.183
6429.082  6428.941      5.8   0.50   0.137
6430.071  6429.930     27.9   0.34   0.068
6430.489  6430.347     12.9   2.93   0.803
6431.025  6430.884    187.3   5.77   2.034  6430.856   26.0   17550   33096   -1.996  1.000 99  Jm
6431.265  6431.123     12.9   2.50   0.625
6431.894  6431.752     26.7   1.67   0.606
6432.195  6432.054     21.9   1.30   0.381
6432.858  6432.717     57.6   0.85   0.310  6432.683   26.1   23318   38859   -3.630  1.000 99  Jm
6433.400  6433.259      5.3   0.64   0.203
6433.633  6433.492     22.9   0.54   0.203
6433.929  6433.787      6.6   0.47   0.152
6434.192  6434.051      6.5   0.43   0.153
6435.174  6435.033     26.6   0.94   0.276
6436.571  6436.430     35.6   1.04   0.334  6436.411   26.0   33765   49298   -2.410  1.000 99  KFE
6437.097  6436.955      9.5   0.46   0.155
6437.853  6437.712     19.3   0.80   0.308
6438.271  6438.130     31.2   3.07   1.378
6438.958  6438.816     25.4   2.20   0.692
6439.255  6439.114    188.7   6.07   2.540
6440.112  6439.971      8.9   0.75   0.167
6441.113  6440.971     19.6   1.78   0.644
6442.689  6442.547      9.3   0.45   0.205
6443.115  6442.973      6.2   0.30   0.093
6443.587  6443.445     12.9   1.09   0.456
6444.393  6444.251     17.4   1.72   0.402
6444.874  6444.732     19.4   0.32   0.131
6445.122  6444.980      6.5   0.24   0.096
6445.934  6445.793      5.1   0.70   0.214
6446.314  6446.172      6.2   0.40   0.075
6448.751  6448.609     10.4   2.27   0.691
6449.283  6449.141     47.2   9.18   2.407
6450.010  6449.868    156.9   8.78   2.876
6450.404  6450.262    224.4  15.84   5.488
6450.823  6450.681     19.7   4.79   0.824
6451.703  6451.561     23.7   0.91   0.281
6452.093  6451.951      7.3   0.25   0.045
6452.501  6452.359     46.5   1.17   0.508
6453.774  6453.632      7.9   0.77   0.251
6454.451  6454.309      6.5   0.98   0.239
6455.177  6455.035     49.0   1.10   0.392
6455.788  6455.646    104.4   2.15   1.285
6456.565  6456.423     71.3   1.48   0.406  6456.391   26.1   31483   46967   -2.080  1.000 99  Jm
6457.029  6456.887     16.7   1.90   0.314
6457.503  6457.361     21.1   2.13   0.436
6458.718  6458.576     16.1   0.33   0.146
6459.286  6459.144      5.2   0.51   0.121
6461.012  6460.870      9.1   0.54   0.252
6462.813  6462.671    278.0   5.78   1.702
6463.070  6462.928     27.6   5.21   1.813
6464.127  6463.984      9.0   0.28   0.097
6464.381  6464.239     14.8   0.56   0.190
6464.856  6464.714     62.0   1.24   0.523  6464.661   26.0    7728   23192   -5.511  1.000 99  KFE
6465.980  6465.838     14.6   0.47   0.109
6466.706  6466.564     12.3   0.87   0.158
6467.143  6467.001     21.1   2.07   0.641
6469.349  6469.207    102.2   1.85   0.517
6469.933  6469.791      6.7   1.05   0.237
6470.787  6470.645      8.7   0.59   0.140
6471.039  6470.897      8.4   0.74   0.153
6471.486  6471.344     25.6   2.19   0.601
6471.843  6471.701    138.8   3.44   1.928
6472.328  6472.186      7.0   0.40   0.118
6473.453  6473.311     13.1   0.52   0.111
6473.975  6473.833      7.0   1.04   0.420
6474.312  6474.170      6.3   0.63   0.192
6474.630  6474.487     14.1   0.42   0.189
6474.887  6474.745      5.4   0.47   0.141
6475.808  6475.665    116.2   3.95   1.707
6477.383  6477.240      6.5   1.19   0.279
6478.018  6477.875     18.5   0.56   0.185
6478.573  6478.430     11.6   0.94   0.455
6478.868  6478.726     31.3   0.96   0.202
6479.085  6478.942     10.8   0.93   0.334
6480.451  6480.309      5.4   0.76   0.151
6481.153  6481.010     15.1   0.52   0.162
6482.065  6481.922    131.7   4.41   1.924  6481.878   26.0   18378   33802   -2.890  1.000 99  Jm
6482.458  6482.315     14.3   3.43   0.914
6482.978  6482.835    106.2   3.00   1.042
6483.847  6483.704      5.9   0.44   0.243
6484.132  6483.989     36.8   0.41   0.083
6484.973  6484.830      7.6   0.50   0.174
6485.324  6485.181      8.4   0.86   0.232
6486.467  6486.324     22.1   1.87   0.204
6486.620  6486.477     14.3   1.73   0.264
6486.815  6486.673     13.0   1.30   0.471
6488.214  6488.072      5.3   0.67   0.091
6489.074  6488.931     15.9   1.39   0.285
6489.621  6489.479     13.2   1.72   0.530
6490.334  6490.191     12.0   1.73   0.375
6490.522  6490.379     28.7   1.78   0.441
6490.979  6490.836     12.3   1.87   0.647
6491.777  6491.634     92.7   2.93   1.153
6492.859  6492.716      8.8   0.22   0.055
6493.245  6493.102     11.7   1.03   0.307
6493.972  6493.829    164.1   4.48   2.455
6494.269  6494.126     25.1   3.51   0.681
6494.688  6494.545     80.6   8.52   1.847
6495.171  6495.028    224.0  11.15   2.303
6495.911  6495.768     69.7   3.77   0.997
6496.658  6496.516     92.4   2.37   0.966  6496.472   26.0   38678   54067   -0.520  1.000 99  Jm
6497.098  6496.955    167.8   5.26   1.733
6497.884  6497.741     36.7   0.50   0.201
6498.421  6498.278      6.0   0.55   0.170
6498.638  6498.495      8.0   0.55   0.047
6499.126  6498.983    129.7   3.94   2.283  6498.950   26.0    7728   23111   -4.600  1.000 99  J
6499.384  6499.241      8.6   1.84   0.477
6499.830  6499.687    133.0   3.00   2.048
6501.020  6500.877     11.5   0.51   0.129
6501.369  6501.226     39.2   0.87   0.278
6501.857  6501.714     55.8   1.86   0.843
6502.350  6502.207     22.1   0.76   0.381
6502.575  6502.432     15.7   0.76   0.288
6503.001  6502.858     14.2   0.94   0.419
6503.266  6503.123      7.5   0.66   0.271
6503.538  6503.395      5.8   0.82   0.169
6504.354  6504.211     57.2   0.77   0.301
6505.057  6504.914      5.1   1.93   0.476
6505.610  6505.467     30.0   1.72   0.651
6506.550  6506.406      7.7   0.63   0.272
6506.787  6506.644      5.7   0.72   0.155
6507.374  6507.231     11.8   1.37   0.406
6507.699  6507.556      5.4   0.73   0.203
6508.323  6508.180     31.5   0.71   0.200
6509.007  6508.864     41.0   1.24   0.547
6509.335  6509.192      6.0   0.74   0.155
6509.784  6509.641     17.6   2.31   0.654
6510.246  6510.103     10.2   0.69   0.152
6510.581  6510.438     12.8   0.48   0.116
6511.240  6511.096      6.7   0.29   0.092
6511.992  6511.849      8.1   0.47   0.127
6512.352  6512.209     18.8   0.75   0.346
6512.798  6512.655     10.6   1.36   0.416
6513.229  6513.086      6.6   0.93   0.224
6513.508  6513.365     10.6   0.91   0.440
6514.252  6514.108     14.1   1.01   0.292
6514.596  6514.452     11.0   0.50   0.096
6514.988  6514.845      9.6   1.64   0.525
6515.383  6515.240     18.1   1.64   0.372
6516.005  6515.861     19.3   2.01   0.692
6516.264  6516.121     72.1   1.02   0.266
6516.846  6516.702      5.2   0.93   0.248
6517.153  6517.010     14.8   0.36   0.156
6517.898  6517.755      5.3   1.15   0.299
6518.557  6518.413    107.5   4.01   1.538
6518.968  6518.824     43.6   5.61   2.117  6518.935   26.0   35768   51103   -2.520  1.000 99  kp
6519.581  6519.438      6.7   0.78   0.231
6519.901  6519.758     21.8   0.58   0.204
6520.329  6520.185      8.8   0.38   0.095
6520.980  6520.837     11.6   0.84   0.274
6521.263  6521.119      7.7   0.48   0.172
6522.219  6522.076      8.2   0.62   0.161
6522.601  6522.458     12.3   1.47   0.179
6523.047  6522.904     27.2   3.59   1.129
6524.004  6523.860     12.6   1.22   0.401
6526.196  6526.052     15.3   1.46   0.571
6526.796  6526.652     36.6   4.08   0.915
6527.389  6527.245     56.2   6.03   1.307
6527.777  6527.633     14.2   2.62   0.598
6528.253  6528.109      9.1   1.57   0.334
6528.739  6528.595     34.5   1.53   0.412
6529.375  6529.231     11.2   0.23   0.074
6529.614  6529.470     11.1   0.40   0.115
6530.204  6530.060      9.4   0.80   0.321
6531.193  6531.050     10.4   1.18   0.260
6531.611  6531.468     56.2   1.98   0.762
6532.149  6532.006     15.6   1.17   0.424
6532.752  6532.609     13.6   0.66   0.234
6533.064  6532.920     68.5   0.97   0.542
6533.309  6533.165     17.2   0.93   0.168
6534.120  6533.976     66.0   1.44   0.653  6533.970   26.0   36767   52067   -1.220  1.000 99  J
6534.385  6534.241     12.9   0.66   0.169
6536.744  6536.601     17.0   1.85   0.716
6537.411  6537.267     16.0   3.77   1.000
6538.110  6537.967     34.6   2.10   0.626
6538.720  6538.576     16.8   1.63   0.557
6541.386  6541.242     10.3   1.50   0.092
6541.490  6541.346     19.6   1.50   0.083
6541.843  6541.700      7.1   0.71   0.234
6542.354  6542.210     12.7   1.46   0.343
6542.717  6542.574     14.6   1.96   0.513
6543.453  6543.309     11.1   1.00   0.133
6543.682  6543.538     19.4   1.01   0.156
6545.029  6544.885     11.7   1.67   0.539
6545.821  6545.677     12.8   0.43   0.165
6546.434  6546.290    163.3   4.52   1.821
6547.143  6546.999      6.7   0.20   0.081
6547.457  6547.313     21.9   0.45   0.187
6547.774  6547.630     17.7   1.51   0.377
6548.336  6548.192     20.8   2.44   0.840
6549.153  6549.009      5.4   1.36   0.325
6550.445  6550.301     19.7   0.63   0.229
6551.081  6550.937     10.5   0.70   0.280
6551.601  6551.457     18.6   2.63   0.803
6551.859  6551.715     60.3   1.67   0.625
6552.612  6552.468      9.5   0.69   0.193
6552.836  6552.692     15.1   0.69   0.135
6553.138  6552.994      6.9   0.49   0.156
6553.374  6553.230      7.6   0.49   0.133
6554.054  6553.909      9.6   0.28   0.047
6554.421  6554.277     84.7   1.65   0.837
6555.027  6554.883     15.3   0.40   0.115
6555.324  6555.179     15.9   0.58   0.165
6555.663  6555.519     52.0   0.99   0.297
6555.985  6555.841     23.4   1.41   0.359
6556.253  6556.109     90.4   2.12   1.286
6556.979  6556.835     36.5   1.07   0.450  6556.775   26.0   38678   53925   -1.705  1.000 99  KFE
6557.686  6557.542      6.7   0.53   0.086
6558.213  6558.068     21.4   2.68   0.421
6558.363  6558.218     26.6   2.69   0.364
6558.709  6558.565      9.4   0.53   0.130
6559.059  6558.914     11.6   0.73   0.142
6559.768  6559.623     57.9   3.48   0.882
6560.432  6560.288     23.6   2.59   0.756
6560.786  6560.641     47.2   4.92   1.459
6561.226  6561.081     12.9   3.09   0.719
6561.561  6561.416     12.1   3.43   0.844
6562.143  6561.999     40.6   7.21   2.082
6562.392  6562.247    107.4  11.20   4.402
6563.071  6562.927    465.8   0.00   4.771
6563.744  6563.600     69.2  12.80   4.563
6563.998  6563.853     25.8   4.41   1.533
6564.243  6564.099     44.8   5.59   1.691
6565.162  6565.017      6.6   1.81   0.439
6565.686  6565.542     39.5   3.70   1.189
6566.090  6565.945     14.9   0.65   0.174
6567.588  6567.443      8.0   0.86   0.322
6569.155  6569.011     16.0   1.08   0.285
6569.407  6569.263    106.9   2.08   1.257  6569.230   26.0   38175   53394   -0.330  1.000 99  J
6569.642  6569.497      6.1   1.76   0.510
6570.129  6569.984     20.5   1.05   0.471
6570.364  6570.219      9.0   1.03   0.244
6570.904  6570.760     36.6   5.38   1.742
6571.309  6571.165     23.9   1.92   0.338
6572.438  6572.294      7.9   0.57   0.180
6572.990  6572.845    131.6   2.90   1.262
6573.652  6573.507      7.7   1.27   0.467
6574.421  6574.277    107.2   3.62   2.198  6574.240   26.0    7986   23192   -4.970  1.000 99  J
6574.956  6574.811      6.9   1.50   0.298
6575.221  6575.077    122.7   2.47   1.476
6575.467  6575.322     13.9   1.74   0.530
6576.441  6576.296     17.9   1.55   0.624
6576.732  6576.588      9.8   1.03   0.378
6577.068  6576.924     13.8   0.75   0.210
6577.784  6577.639      5.0   0.92   0.271
6579.036  6578.891      6.6   1.16   0.443
6579.544  6579.400      8.0   0.79   0.294
6580.400  6580.255     22.7   0.87   0.152
6581.148  6581.003     22.2   2.90   1.065
6581.392  6581.247     91.9   2.07   0.976  6581.220   26.0   11976   27167   -4.750  1.000 99  J
6581.734  6581.589      6.2   0.43   0.105
6582.317  6582.173     14.5   0.70   0.152
6582.854  6582.709     13.1   0.64   0.210
6583.080  6582.935     11.9   0.64   0.179
6583.416  6583.271      8.2   0.63   0.214
6583.886  6583.742     23.6   0.83   0.299
6584.711  6584.567     15.6   1.30   0.542
6585.758  6585.613     18.3   0.60   0.237
6586.505  6586.360    102.2   2.34   1.164
6587.280  6587.135      6.8   0.30   0.133
6588.796  6588.652      5.6   1.50   0.343
6589.258  6589.113     14.7   1.16   0.345
6589.523  6589.378     16.5   0.75   0.248
6590.180  6590.035      9.9   1.09   0.263
6591.504  6591.359     26.5   0.75   0.326  6591.325   26.0   37046   52213   -2.030  1.000 99  KFEm
6591.795  6591.650     10.8   0.50   0.168
6592.716  6592.571     52.3   2.48   0.718
6593.113  6592.968    166.0   4.92   2.032
6593.357  6593.212     10.4   2.64   0.731
6594.075  6593.930    148.6   5.16   2.020  6593.884   26.0   19621   34782   -2.300  1.000 99  Jm
6595.210  6595.065      9.8   0.43   0.137
6595.487  6595.342     20.6   0.73   0.173
6596.088  6595.942     26.4   2.20   0.924
6596.405  6596.260     14.1   1.62   0.490
6597.282  6597.137      9.1   0.94   0.293
6597.751  6597.606     67.3   1.24   0.633
6598.555  6598.410      5.1   0.45   0.105
6598.791  6598.646     48.2   0.48   0.161
6599.304  6599.159     73.2   1.74   1.060
6600.017  6599.871      5.1   0.84   0.163
6600.567  6600.422      7.5   0.62   0.225
6601.009  6600.864      5.9   0.38   0.074
6601.624  6601.479      5.2   0.32   0.094
6602.543  6602.398     12.5   1.92   0.873
6603.515  6603.370     28.1   1.40   0.584
6604.779  6604.633     78.4   2.39   0.624
6605.755  6605.610     13.5   2.56   0.622
6606.137  6605.992     38.2   3.11   0.954
6606.944  6606.799     14.5   0.92   0.221
6607.150  6607.005     28.4   0.94   0.217
6607.503  6607.357     19.2   1.38   0.511
6608.218  6608.073     71.8   2.04   0.802  6608.030   26.0   18378   33507   -3.990  1.000 99  J
6609.305  6609.160    128.2   5.28   1.548
6609.845  6609.700     82.1   7.31   1.967
6610.928  6610.783     13.1   0.82   0.223
6612.124  6611.978     11.4   0.56   0.199
6612.387  6612.242      9.5   0.49   0.176
6613.635  6613.490     30.0   1.67   0.458
6614.000  6613.854     76.4   1.83   0.654
6614.811  6614.665      7.0   0.34   0.105
6617.104  6616.959     22.1   3.07   0.989
6617.895  6617.749     19.5   1.45   0.670
6618.528  6618.382     14.3   0.28   0.077
6619.299  6619.154      6.4   0.31   0.137
6619.861  6619.716      9.7   0.91   0.369
6621.324  6621.178      5.9   0.84   0.287
6622.300  6622.155      6.5   0.81   0.277
6623.095  6622.949      6.5   0.40   0.141
6623.526  6623.380      5.4   0.72   0.159
6623.992  6623.846     18.3   2.10   0.699
6624.539  6624.393     25.6   2.03   0.700
6625.193  6625.047    103.8   8.09   2.542  6625.021   26.0    8155   23245   -5.330  1.000 99  KFE
6626.369  6626.223     13.3   0.64   0.153
6627.749  6627.603     59.3   1.07   0.402  6627.560   26.0   36686   51771   -1.500  1.000 99  J
6629.172  6629.026     12.7   1.02   0.367
6630.202  6630.056     61.4   1.71   0.667
6631.355  6631.209     13.9   3.13   0.986
6631.929  6631.783     20.9   2.66   0.837
6632.186  6632.040     21.7   1.50   0.596
6632.639  6632.494     53.9   0.59   0.265
6633.597  6633.451     56.4   2.44   0.731  6633.440   26.0   38996   54067   -1.260  1.000 99  Jm
6633.951  6633.805     94.3   2.51   0.928
6634.328  6634.182     72.8   3.80   1.306
6635.308  6635.162     51.6   1.71   0.404
6635.890  6635.744     20.2   0.38   0.099
6636.538  6636.392     11.0   0.69   0.214
6637.041  6636.895      5.5   0.63   0.229
6638.036  6637.890     11.8   0.75   0.283
6638.284  6638.138      7.0   1.01   0.327
6638.730  6638.584      7.2   1.15   0.368
6639.896  6639.750     57.5   3.01   0.434
6640.092  6639.946     50.9   2.98   0.496
6640.688  6640.542      8.6   0.48   0.103
6642.757  6642.611     13.4   0.55   0.171
6643.825  6643.679    164.3   3.36   1.548
6644.515  6644.369      7.5   1.16   0.349
6645.305  6645.159     24.3   0.78   0.296
6645.595  6645.449     10.9   0.94   0.287
6647.124  6646.977     53.8   1.74   0.545
6648.049  6647.903     11.4   0.78   0.173
6648.296  6648.150     72.1   0.91   0.499
6649.592  6649.445      8.4   1.11   0.447
6650.405  6650.259      7.1   0.58   0.149
6650.679  6650.533     11.5   0.67   0.143
6651.300  6651.154     12.2   0.46   0.099
6652.442  6652.296     12.5   0.73   0.261
6653.171  6653.025      5.8   0.61   0.220
6653.490  6653.344      9.3   0.58   0.198
6654.049  6653.902     31.4   0.66   0.300
6654.710  6654.564      6.5   0.53   0.198
6656.533  6656.386     13.0   0.79   0.244
6656.781  6656.635     16.0   1.01   0.255
6657.142  6656.996     21.0   1.32   0.492
6657.755  6657.609      8.6   0.67   0.218
6658.580  6658.433      5.8   0.76   0.204
6658.758  6658.612      6.7   0.76   0.090
6659.696  6659.550      8.2   0.32   0.095
6660.069  6659.923     18.9   0.57   0.181
6660.440  6660.294      7.0   0.49   0.117
6661.272  6661.126     30.5   0.62   0.122
6661.518  6661.371     19.8   0.36   0.102
6662.684  6662.538     10.1   0.83   0.180
6663.427  6663.281     63.5   4.82   1.023
6663.638  6663.492    146.4   5.43   1.617
6664.509  6664.362     20.6   0.52   0.115
6665.570  6665.424     32.3   6.38   1.970
6666.067  6665.920      9.0   1.09   0.284
6666.730  6666.583     23.2   1.89   0.610
6667.371  6667.225     15.2   0.90   0.412
6667.617  6667.470     39.7   1.06   0.566
6667.923  6667.777     28.6   0.75   0.101
6668.573  6668.426     25.1   2.85   0.606
6669.112  6668.965     13.0   1.18   0.278
6669.471  6669.324     18.3   1.16   0.129
6670.560  6670.413      9.9   1.19   0.430
6671.575  6671.428      5.8   0.47   0.150
6671.927  6671.780     15.4   0.44   0.109
6672.442  6672.295      7.3   1.52   0.471
6672.824  6672.677     15.0   1.71   0.440
6673.668  6673.521      9.8   0.60   0.180
6674.403  6674.257     10.8   0.39   0.191
6674.656  6674.510      5.9   0.40   0.152
6675.088  6674.941      6.6   0.47   0.092
6675.650  6675.503      8.3   0.61   0.198
6676.807  6676.660     13.7   1.53   0.524
6677.395  6677.248     12.7   0.44   0.117
6677.973  6677.826     17.3   6.75   0.720
6678.200  6678.054    186.4   8.65   2.064
6678.773  6678.626     20.9   1.33   0.322
6679.003  6678.856     38.6   1.37   0.406
6680.365  6680.218     22.4   1.79   0.720
6681.490  6681.343     19.3   2.13   0.780
6681.829  6681.682     11.2   2.03   0.447
6682.561  6682.414      7.1   0.91   0.268
6683.414  6683.267     13.6   0.77   0.221
6683.593  6683.446     12.5   0.77   0.159
6685.130  6684.983     16.2   0.39   0.129
6685.418  6685.271      6.5   0.50   0.117
6686.930  6686.783      5.5   0.77   0.224
6687.701  6687.553     17.4   1.04   0.294
6687.989  6687.842     16.7   2.54   0.882
6688.976  6688.829      8.2   0.82   0.239
6689.437  6689.290     15.1   0.83   0.200
6691.042  6690.894     23.2   1.30   0.635
6692.496  6692.349      9.9   0.90   0.239
6693.048  6692.901     28.1   0.57   0.228
6694.914  6694.766     12.2   2.07   0.945
6695.814  6695.667      5.6   0.34   0.108
6696.233  6696.086     80.6   1.15   0.486
6696.505  6696.358     40.1   1.40   0.424
6696.970  6696.822     21.4   3.01   0.836
6697.477  6697.330     18.3   1.01   0.286
6697.683  6697.536     16.2   1.01   0.325
6698.250  6698.103     15.7   2.56   0.879
6698.867  6698.719     56.8   1.62   0.400
6699.346  6699.198     24.6   0.38   0.068  6699.136   26.0   37046   51969   -2.170  1.000 99  KFEm
6700.351  6700.204      5.1   0.36   0.072
6700.781  6700.633      8.4   0.49   0.151
6701.133  6700.986      8.1   0.29   0.101
6701.579  6701.431      7.7   0.58   0.199
6702.095  6701.947     10.7   1.88   0.593
6702.728  6702.580     12.8   0.27   0.151
6703.770  6703.622     92.4   2.86   1.191  6703.568   26.0   22249   37163   -3.010  1.000 99  KFE
6704.156  6704.009     15.8   0.38   0.081
6704.683  6704.535     21.5   0.82   0.232
6705.307  6705.159     80.6   2.25   0.721
6706.932  6706.784     10.6   0.49   0.119
6707.634  6707.486     18.6   2.64   0.159
6707.744  6707.596     15.2   2.64   0.191
6708.970  6708.823      9.7   0.49   0.108
6709.183  6709.036     16.6   0.49   0.291
6709.834  6709.686      5.5   0.23   0.084
6710.096  6709.949     10.2   0.63   0.193
6710.526  6710.378     85.9   3.36   0.896
6711.487  6711.340     12.6   1.17   0.296
6712.016  6711.868     16.3   1.27   0.226
6712.671  6712.523     18.0   0.52   0.139
6713.291  6713.143     70.1   4.94   2.203
6713.946  6713.799     45.6   0.84   0.272  6713.745   26.0   38678   53569   -1.440  1.000 99  KFEm
6714.592  6714.445      7.9   0.85   0.375
6715.011  6714.863      9.9   0.25   0.071
6715.594  6715.446     65.1   5.05   1.185
6716.210  6716.062     19.1   2.61   0.876
6716.417  6716.269     47.2   2.72   0.548
6716.876  6716.729     13.1   0.57   0.211
6717.389  6717.241     11.5   2.17   0.319
6717.875  6717.727    177.3   9.55   2.478
6719.794  6719.646     25.9   0.44   0.160
6721.036  6720.888     13.4   0.71   0.173
6722.041  6721.893     58.2   1.68   0.631
6722.690  6722.542      9.2   0.77   0.270
6722.926  6722.778     21.4   0.79   0.281
6724.894  6724.746     12.0   0.88   0.183
6725.563  6725.415     45.5   1.21   0.530  6725.364   26.0   33096   47961   -2.220  1.000 99  KFEm
6726.005  6725.857      9.1   0.78   0.303
6726.415  6726.267      9.1   0.34   0.085
6726.875  6726.727     75.3   1.49   0.857  6726.673   26.0   37158   52020   -1.010  1.000 99  KFEm
6727.344  6727.196      8.2   0.89   0.316
6728.196  6728.048      8.8   0.77   0.182
6728.558  6728.410     12.8   0.79   0.288
6728.801  6728.653     15.0   0.79   0.200
6729.227  6729.079     20.7   0.52   0.262
6729.927  6729.779      9.2   0.46   0.227
6730.496  6730.348     10.8   0.95   0.308
6731.431  6731.283      6.4   0.80   0.202
6731.953  6731.805      6.5   0.36   0.155
6732.259  6732.111     23.0   0.69   0.275
6733.360  6733.212     56.7   0.76   0.483  6733.151   26.0   37410   52257   -1.440  1.000 99  KFEm
6733.857  6733.709     12.3   0.90   0.362
6734.465  6734.317     15.1   1.28   0.585
6734.882  6734.734     13.7   0.62   0.198
6735.155  6735.007     11.5   0.81   0.335
6735.630  6735.482      8.2   0.38   0.152
6736.087  6735.939      7.7   0.40   0.162
6736.814  6736.666      8.9   0.88   0.400
6737.508  6737.360      7.8   0.49   0.248
6738.191  6738.043     51.8   1.43   0.451
6738.454  6738.306     26.3   2.63   0.704
6739.027  6738.879     20.6   1.38   0.302
6739.380  6739.231     11.2   1.14   0.332
6739.729  6739.581     71.3   1.97   1.166  6739.524   26.0   12561   27395   -4.934  1.000 99  KFEm
6740.297  6740.149     16.3   0.96   0.227
6740.639  6740.491      9.0   0.61   0.206
6741.180  6741.032     13.3   0.70   0.295
6741.815  6741.667     23.2   1.32   0.423
6742.079  6741.931     10.1   0.69   0.335
6742.527  6742.378      9.2   0.32   0.126
6742.779  6742.631      5.4   0.54   0.101
6743.335  6743.187     99.2   3.35   1.255
6743.799  6743.651     10.0   0.42   0.175
6744.106  6743.957      8.7   0.47   0.102
6745.318  6745.169     25.8   0.89   0.316
6745.752  6745.604     22.1   0.41   0.102
6746.173  6746.025     23.9   0.48   0.124  6745.984   26.0   32874   47693   -2.730  1.000 99  KFEm
6746.541  6746.392      8.2   0.88   0.203
6747.163  6747.015     29.7   0.58   0.302
6747.695  6747.547     17.0   1.98   0.795
6747.939  6747.790     14.3   1.97   0.643
6748.342  6748.194     13.1   0.98   0.150
6748.582  6748.434     17.8   0.99   0.111
6748.996  6748.848      8.0   1.01   0.324
6749.241  6749.093      9.1   0.99   0.302
6750.370  6750.221    135.5   3.20   1.848  6750.164   26.0   19552   34363   -2.510  1.000 99  KFEm
6751.288  6751.139      7.2   0.53   0.178
6751.636  6751.487      7.9   0.30   0.105
6752.926  6752.777     72.3   3.28   0.849  6752.716   26.0   37410   52214   -1.244  1.000 99  KFEm
6753.195  6753.047     24.1   3.87   1.409
6753.668  6753.520     18.3   0.70   0.113
6754.637  6754.488     11.4   2.29   0.499
6755.086  6754.937     22.0   3.00   0.881
6755.812  6755.664     43.2   0.79   0.281
6756.732  6756.584     15.4   0.99   0.311
6757.346  6757.197      9.7   1.10   0.418
6757.871  6757.722      8.4   0.28   0.080
6759.036  6758.887     12.8   0.90   0.361
6759.332  6759.183      9.0   1.34   0.417
6761.248  6761.099      6.0   0.72   0.190
6761.734  6761.585     20.5   0.74   0.281
6762.338  6762.189     16.4   0.57   0.199
6762.569  6762.420     10.8   0.57   0.090
6764.151  6764.002     13.3   0.53   0.112
6764.332  6764.183     11.5   0.53   0.144
6765.421  6765.273      6.7   0.86   0.234
6765.661  6765.512     18.0   0.89   0.399
6765.890  6765.741      9.2   0.87   0.315
6766.372  6766.223     10.3   0.73   0.200
6766.678  6766.529     17.9   2.33   0.264
6766.816  6766.667     14.5   2.32   0.383
6767.986  6767.837    138.8   2.79   1.608
6769.021  6768.873     10.2   0.58   0.194
6769.867  6769.718     20.1   2.56   0.713
6771.171  6771.022     55.5  17.44   0.615
6771.276  6771.127     87.5  17.18   0.503
6772.524  6772.375     84.6   2.19   0.844
6773.385  6773.236      9.5   0.59   0.133
6774.451  6774.302     20.1   1.19   0.483
6775.097  6774.948      6.7   0.41   0.194
6776.569  6776.420     11.9   1.15   0.414
6777.623  6777.474     28.9   1.44   0.436
6777.975  6777.826     18.6   1.81   0.626
6780.492  6780.343      8.9   0.72   0.236
6782.412  6782.263     18.6   0.89   0.284
6782.701  6782.552     12.6   1.10   0.443
6783.494  6783.345     23.3   2.10   0.475
6783.892  6783.743     66.9   3.62   0.952
6784.425  6784.275     36.7   2.60   0.647
6785.047  6784.898      8.0   0.55   0.143
6785.222  6785.073     33.6   0.55   0.087
6785.403  6785.254      7.9   0.52   0.071
6785.957  6785.808     22.0   1.89   0.608
6786.304  6786.155     12.6   2.64   0.939
6786.613  6786.464     25.6   1.81   0.535
6787.074  6786.925     57.8   1.18   0.559  6786.860   26.0   33802   48532   -1.920  1.000 99  KFEm
6789.337  6789.187     16.3   0.44   0.122
6789.755  6789.606     12.4   0.79   0.323
6790.240  6790.091      7.2   0.72   0.287
6790.569  6790.420      9.6   0.67   0.200
6790.811  6790.662      7.5   0.67   0.180
6792.532  6792.383      9.9   0.41   0.102
6793.465  6793.316     41.2   0.64   0.310  6793.262   26.0   36976   51692   -2.420  1.000 99  KFE
6793.830  6793.681     38.9   0.52   0.207
6794.568  6794.418     10.3   1.64   0.500
6794.802  6794.653     15.1   1.65   0.555
6795.600  6795.450     17.8   0.61   0.098
6796.030  6795.881     12.8   1.05   0.352
6796.325  6796.175     45.3   1.47   0.396
6796.701  6796.551      9.0   1.25   0.358
6796.996  6796.847      9.5   0.63   0.186
6797.377  6797.228      7.6   0.39   0.145
6797.647  6797.498      6.0   0.51   0.175
6798.668  6798.518     24.6   0.41   0.190
6799.178  6799.029     25.1   1.28   0.442
6799.366  6799.216      7.1   1.24   0.421
